time,seconds_elapsed,z,y,x
1717012781086275800,0.12127587890625,0.024548999965190887,0.7301700115203857,0.6136890053749084
1717012781096162600,0.13116259765625,0.5348399877548218,-0.28626298904418945,-1.1066479682922363
1717012781106049500,0.141049560546875,0.5348399877548218,-0.28626298904418945,-1.1066479682922363
1717012781115934500,0.1509345703125,-0.16812799870967865,-0.4434100091457367,-0.9901180267333984
1717012781125819100,0.160819091796875,-0.5673019886016846,-0.35072800517082214,-0.5224940180778503
1717012781135703800,0.170703857421875,-0.4922409951686859,-0.006982000079005957,0.1588039994239807
1717012781145588500,0.18058837890625,-0.36899301409721375,0.4256129860877991,0.7182430028915405
1717012781155473200,0.19047314453125,-0.3127939999103546,0.40769100189208984,1.1153939962387085
1717012781165358000,0.200358154296875,-0.15423500537872314,0.3317520022392273,1.4019149541854858
1717012781175242800,0.21024267578125,0.001411000033840537,0.37900200486183167,1.28793203830719
1717012781185127400,0.22012744140625,0.2651289999485016,0.2624010145664215,1.015146017074585
1717012781195012000,0.23001220703125,0.5977029800415039,-0.07167799770832062,0.888916015625
1717012781204896800,0.239896728515625,0.8741620182991028,0.42185598611831665,0.22073300182819366
1717012781214781700,0.24978173828125,1.0289289951324463,0.28228500485420227,0.1357859969139099
1717012781224666400,0.259666259765625,0.7567440271377563,-0.5181710124015808,0.447829008102417
1717012781234551000,0.269551025390625,0.05099499970674515,-0.3433369994163513,0.3638629913330078
1717012781244435700,0.279435791015625,-0.5760030150413513,-0.0754690021276474,-0.41530901193618774
1717012781254320400,0.2893203125,-1.2688030004501343,-0.4707750082015991,-0.9594470262527466
1717012781264205300,0.299205322265625,-1.4390419721603394,-0.734220027923584,-1.2203569412231445
1717012781274090000,0.309090087890625,-1.3080339431762695,-0.3345760107040405,-1.183485984802246
1717012781283975000,0.318974853515625,-1.17842698097229,0.43873798847198486,-0.47718900442123413
1717012781293859600,0.328859619140625,-1.0155420303344727,0.6637899875640869,0.4646480083465576
1717012781303744500,0.33874462890625,-0.8572329878807068,0.10383199900388718,1.1797189712524414
1717012781313629200,0.348629150390625,-0.5745859742164612,-0.3441329896450043,1.3613749742507935
1717012781323513600,0.358513671875,-1.0820690393447876,-0.6321070194244385,0.9682999849319458
1717012781333398500,0.3683984375,-1.8544549942016602,-0.41768500208854675,-0.7173590064048767
1717012781343283200,0.378283203125,-2.2403640747070312,-0.03094800002872944,-1.7442870140075684
1717012781353168100,0.388168212890625,-2.2498910427093506,-0.5287579894065857,-1.174630045890808
1717012781363052800,0.398052734375,-1.6375130414962769,-1.1454060077667236,0.11869499832391739
1717012781372937500,0.4079375,-1.0780110359191895,-0.9451249837875366,0.9421560168266296
1717012781382822400,0.417822509765625,-0.6672080159187317,-0.9017000198364258,1.2993249893188477
1717012781392706800,0.427706787109375,-0.7001670002937317,-1.2517600059509277,1.3498599529266357
1717012781402591700,0.437591796875,-0.8113330006599426,-1.343008041381836,0.7086880207061768
1717012781412476400,0.447476318359375,-0.7810660004615784,-1.3440059423446655,-0.04824899882078171
1717012781422361300,0.457361328125,-0.9352530241012573,-1.5312050580978394,-0.3545989990234375
1717012781432246000,0.46724609375,-1.277001976966858,-1.5705640316009521,-0.2916789948940277
1717012781442131000,0.477130859375,-1.1672019958496094,-1.4036509990692139,-0.12774300575256348
1717012781452015600,0.487015625,-0.9377610087394714,-0.8277209997177124,0.21780499815940857
1717012781461900300,0.496900390625,-1.7670090198516846,-0.06457599997520447,1.7606439590454102
1717012781471785000,0.506784912109375,-2.9864070415496826,-0.12846100330352783,3.155714988708496
1717012781481670000,0.516669921875,-1.8603260517120361,-1.2251689434051514,3.0957720279693604
1717012781491554600,0.526554443359375,-0.7770599722862244,-1.0953350067138672,3.210216999053955
1717012781501439500,0.536439453125,0.3487510085105896,-0.9850680232048035,2.9569740295410156
1717012781511324200,0.54632421875,1.2734010219573975,-1.2560540437698364,3.0879790782928467
1717012781521209000,0.556208984375,2.473120927810669,-1.4192429780960083,4.089582920074463
1717012781531093800,0.56609375,4.093696117401123,-1.108994960784912,4.559666156768799
1717012781540978400,0.575978515625,5.673357009887695,-0.8159949779510498,4.212533950805664
1717012781550863000,0.585863037109375,6.077885150909424,-0.8871960043907166,3.751626968383789
1717012781560747800,0.595747802734375,5.967907905578613,-1.3953570127487183,3.7445011138916016
1717012781570632700,0.6056328125,6.855126857757568,-2.329085111618042,5.318000793457031
1717012781580517400,0.615517333984375,9.007301330566406,-2.7560689449310303,7.263999938964844
1717012781590402300,0.62540234375,11.009040832519531,-3.425654888153076,6.055200099945068
1717012781600287000,0.635286865234375,12.231233596801758,-4.719723224639893,2.65775990486145
1717012781610171600,0.645171630859375,12.203388214111328,-4.873379230499268,-1.3473910093307495
1717012781620056600,0.655056640625,10.890710830688477,-3.0963029861450195,-4.953911781311035
1717012781629941200,0.664941162109375,8.70536994934082,-1.9578419923782349,-6.255129814147949
1717012781639826200,0.674826171875,6.743495941162109,-2.3646740913391113,-4.858503818511963
1717012781649710800,0.6847109375,5.990795135498047,-2.781338930130005,-2.597203016281128
1717012781659595500,0.694595458984375,5.388635158538818,-2.730670928955078,-1.4649629592895508
1717012781669480400,0.70448046875,3.942909002304077,-2.6917378902435303,-1.943969964981079
1717012781679365400,0.714365478515625,1.794327974319458,-2.596590042114258,-3.1895759105682373
1717012781689250000,0.72425,-0.7013369798660278,-2.525270938873291,-4.326060771942139
1717012781699135000,0.734135009765625,-3.026668071746826,-1.9514169692993164,-5.468849182128906
1717012781709019400,0.744019287109375,-5.0749359130859375,-1.2067339420318604,-6.205479145050049
1717012781718904000,0.753904052734375,-6.618349075317383,-0.746986985206604,-6.292383193969727
1717012781728789000,0.7637890625,-7.595478057861328,-0.355989009141922,-5.86510705947876
1717012781738674000,0.773673828125,-8.051582336425781,0.18080799281597137,-5.1040849685668945
1717012781748558600,0.78355859375,-8.093265533447266,0.6366459727287292,-4.209668159484863
1717012781758443500,0.793443603515625,-7.917013168334961,0.9637159705162048,-3.48293399810791
1717012781768328200,0.803328125,-7.635210990905762,1.119771957397461,-2.8839468955993652
1717012781778213000,0.813213134765625,-7.27056884765625,1.129418969154358,-2.203958034515381
1717012781788097800,0.823097900390625,-7.0316548347473145,1.1523350477218628,-1.5175659656524658
1717012781797982500,0.832982421875,-6.968523979187012,1.2802670001983643,-1.1124529838562012
1717012781807867100,0.8428671875,-6.934819221496582,1.5058139562606812,-0.9787619709968567
1717012781817752000,0.852751953125,-6.803055763244629,1.8502509593963623,-0.9534090161323547
1717012781827636700,0.86263671875,-6.470444202423096,2.238600969314575,-0.8963279724121094
1717012781837521700,0.872521728515625,-5.986755847930908,2.540479898452759,-0.7538620233535767
1717012781847406300,0.88240625,-5.431004047393799,2.8539841175079346,-0.6566900014877319
1717012781857291300,0.892291259765625,-4.716803073883057,2.915186882019043,-0.46775099635124207
1717012781867176000,0.902176025390625,-3.831043004989624,2.631350040435791,-0.04700100049376488
1717012781877060900,0.912060791015625,-3.0496339797973633,2.3410799503326416,0.2407979965209961
1717012781886945500,0.921945556640625,-2.4469070434570312,1.9856640100479126,0.17343899607658386
1717012781896830500,0.93183056640625,-1.7871259450912476,1.5997309684753418,0.2091509997844696
1717012781906715100,0.941715087890625,-1.073699951171875,1.448583960533142,0.3993209898471832
1717012781916599800,0.951599853515625,-0.41975998878479004,1.3788670301437378,0.6834560036659241
1717012781926484700,0.961484619140625,0.3097909986972809,1.2742940187454224,1.6987650394439697
1717012781936369400,0.971369384765625,0.824633002281189,1.2530349493026733,2.7046120166778564
1717012781946254300,0.98125439453125,0.9613059759140015,1.3352279663085938,3.0412890911102295
1717012781956139000,0.991138916015625,0.8554450273513794,1.3617819547653198,2.9426310062408447
1717012781966023700,1.001023681640625,0.5251560211181641,1.1638259887695312,2.6037049293518066
1717012781975908400,1.010908447265625,0.06092400103807449,0.6902599930763245,2.0517640113830566
1717012781985793300,1.020793212890625,-0.4032599925994873,0.20660799741744995,1.1758110523223877
1717012781995678200,1.03067822265625,-0.7306079864501953,0.17168700695037842,0.4278489947319031
1717012782005563000,1.04056298828125,-0.7972859740257263,0.309349000453949,0.24627900123596191
1717012782015447800,1.05044775390625,-0.6378290057182312,0.24187900125980377,0.6394230127334595
1717012782025332500,1.06033251953125,-0.3206630051136017,-0.06329599767923355,1.413938045501709
1717012782035217400,1.070217529296875,-0.0421300008893013,-0.21543599665164948,2.5127511024475098
1717012782045102000,1.08010205078125,0.15029500424861908,-0.10114900022745132,3.4358010292053223
1717012782054987000,1.089987060546875,0.23303599655628204,0.04307999834418297,3.999840021133423
1717012782064871700,1.09987158203125,0.008829000405967236,0.17286400496959686,4.109471797943115
1717012782074756400,1.10975634765625,-0.10653600096702576,0.2246910035610199,3.3819780349731445
1717012782084641000,1.11964111328125,-0.3356289863586426,0.2717530131340027,2.491180896759033
1717012782094526000,1.12952587890625,-0.06210299953818321,0.1942020058631897,2.255345106124878
1717012782104411000,1.139410888671875,0.7567170262336731,0.11296200007200241,2.5034759044647217
1717012782114295600,1.149295654296875,0.37177300453186035,-0.20082999765872955,3.362781047821045
1717012782124180500,1.159180419921875,0.4702189862728119,-0.4598639905452728,4.59662389755249
1717012782134065200,1.169065185546875,1.5553749799728394,-0.5342910289764404,5.973299026489258
1717012782143949800,1.17894970703125,3.29229998588562,-0.5650330185890198,7.259438991546631
1717012782153834800,1.188834716796875,5.721039772033691,-0.44242599606513977,7.801950931549072
1717012782163719700,1.1987197265625,7.548031806945801,-0.7619410157203674,7.51436185836792
1717012782173604000,1.20860400390625,8.215225219726562,-1.6231529712677002,6.496287822723389
1717012782183489000,1.218489013671875,8.110580444335938,-1.708922028541565,5.013031005859375
1717012782193374000,1.2283740234375,7.548463821411133,-1.4095369577407837,3.665623903274536
1717012782203258600,1.238258544921875,7.372372150421143,-2.238830089569092,3.6124989986419678
1717012782213143600,1.2481435546875,7.597096920013428,-3.590264081954956,4.45720100402832
1717012782223028200,1.2580283203125,8.417678833007812,-4.700211048126221,5.6177592277526855
1717012782232913000,1.267912841796875,10.154142379760742,-5.610569000244141,5.431008815765381
1717012782242797800,1.2777978515625,12.12731647491455,-6.106054782867432,3.000006914138794
1717012782252682800,1.287682861328125,13.022649765014648,-6.214445114135742,-0.39359399676322937
1717012782262567400,1.2975673828125,11.898921966552734,-6.049954891204834,-3.0628750324249268
1717012782272452000,1.3074521484375,8.814336776733398,-4.9879631996154785,-4.825501918792725
1717012782282337000,1.3173369140625,4.717868804931641,-3.2391719818115234,-5.891601085662842
1717012782292221700,1.3272216796875,0.8022950291633606,-1.5161370038986206,-6.416481018066406
1717012782302106600,1.337106689453125,-2.4045639038085938,-0.061709001660346985,-6.649184226989746
1717012782311991300,1.3469912109375,-4.7380499839782715,1.0682309865951538,-6.488146781921387
1717012782321876200,1.356876220703125,-6.27203893661499,1.567384958267212,-6.34011697769165
1717012782331761200,1.36676123046875,-6.621631145477295,1.9395079612731934,-6.380893230438232
1717012782341645800,1.376645751953125,-6.051703929901123,2.4252068996429443,-6.491913795471191
1717012782351530800,1.38653076171875,-5.09656286239624,2.802565097808838,-6.779932022094727
1717012782361415200,1.396415283203125,-4.228450775146484,3.0828518867492676,-7.0231451988220215
1717012782371300000,1.406300048828125,-3.9195609092712402,2.8174819946289062,-6.8569159507751465
1717012782381185000,1.41618505859375,-4.200448989868164,2.0099849700927734,-6.571132183074951
1717012782391069700,1.426069580078125,-4.920359134674072,1.2919880151748657,-6.509706020355225
1717012782400954600,1.43595458984375,-5.8922882080078125,0.9879900217056274,-6.516564846038818
1717012782410839300,1.44583935546875,-6.861830234527588,0.8439919948577881,-6.174851894378662
1717012782420724000,1.455723876953125,-7.552663803100586,0.7591930031776428,-5.324682235717773
1717012782430608600,1.465608642578125,-7.783731937408447,0.8945549726486206,-4.302145004272461
1717012782440493600,1.47549365234375,-7.528584957122803,0.9980440139770508,-3.1985158920288086
1717012782450378200,1.485378173828125,-7.1124677658081055,1.0872349739074707,-2.079612970352173
1717012782460263200,1.49526318359375,-6.4371747970581055,1.2089879512786865,-1.322890043258667
1717012782470148000,1.505148193359375,-5.475339889526367,1.0959899425506592,-0.8471119999885559
1717012782480032800,1.51503271484375,-4.366671085357666,0.803991973400116,-0.49208900332450867
1717012782489917700,1.524917724609375,-3.1933369636535645,0.575993001461029,-0.1616709977388382
1717012782499802400,1.53480224609375,-2.4186689853668213,0.46639400720596313,0.11946199834346771
1717012782509687300,1.544687255859375,-2.1261351108551025,0.4571160078048706,0.39236998558044434
1717012782519572000,1.554572021484375,-2.1753079891204834,0.31769201159477234,0.68989497423172
1717012782529456600,1.56445654296875,-2.227447032928467,-0.06744500249624252,0.9575160145759583
1717012782539341600,1.574341552734375,-2.3851571083068848,-0.4451560080051422,1.1684130430221558
1717012782549226200,1.584226318359375,-2.6209259033203125,-0.574524998664856,1.22993004322052
1717012782559111200,1.594111083984375,-2.61434006690979,-0.35801899433135986,1.0071439743041992
1717012782568996000,1.60399609375,-2.439471960067749,0.12798400223255157,0.4993149936199188
1717012782578880800,1.613880859375,-2.3259780406951904,0.6135870218276978,-0.21974700689315796
1717012782588765700,1.623765625,-2.467982053756714,1.042870044708252,-0.7277979850769043
1717012782598650400,1.633650390625,-2.5391860008239746,0.8894960284233093,-0.6854379773139954
1717012782608535000,1.64353515625,-2.3729488849639893,0.7043960094451904,-0.4507499933242798
1717012782618420000,1.653419921875,-2.001559019088745,0.7475169897079468,0.04979899898171425
1717012782628304600,1.6633046875,-1.6604470014572144,0.4828140139579773,0.9342389702796936
1717012782638189600,1.673189453125,-1.1715569496154785,0.03585100173950195,1.4585909843444824
1717012782648074200,1.68307421875,-0.3564459979534149,-0.17451900243759155,1.4260729551315308
1717012782657959200,1.692959228515625,0.7916430234909058,0.021183999255299568,1.3192579746246338
1717012782667843800,1.70284375,1.754114031791687,0.7737470269203186,1.846606969833374
1717012782677728800,1.712728759765625,1.8016910552978516,1.5237979888916016,3.2668850421905518
1717012782687613700,1.72261376953125,1.5989530086517334,1.6022380590438843,5.048707962036133
1717012782697498400,1.732498291015625,1.3935619592666626,1.3521909713745117,6.43816614151001
1717012782707383000,1.742383056640625,0.8988500237464905,1.152951955795288,7.202532768249512
1717012782717268000,1.75226806640625,0.5862799882888794,0.7359619736671448,7.745226860046387
1717012782727152600,1.762152587890625,0.9426239728927612,0.19836899638175964,9.20018196105957
1717012782737037600,1.77203759765625,1.83889901638031,0.32109498977661133,11.613744735717773
1717012782746922200,1.781922119140625,3.6679189205169678,1.4664759635925293,12.956596374511719
1717012782756807200,1.79180712890625,6.355935096740723,2.745181083679199,12.421276092529297
1717012782766691800,1.80169189453125,8.732748985290527,3.044945001602173,10.653020858764648
1717012782776576800,1.81157666015625,9.734198570251465,1.9951560497283936,8.677616119384766
1717012782786461400,1.82146142578125,9.08815860748291,0.2577250003814697,7.754893779754639
1717012782796346400,1.831346435546875,7.404928207397461,-1.3514189720153809,7.184712886810303
1717012782806231000,1.84123095703125,6.025540828704834,-2.8035359382629395,6.225369930267334
1717012782816115700,1.85111572265625,8.52203369140625,-4.214828968048096,5.381895065307617
1717012782826000600,1.861000732421875,14.020027160644531,-6.117463111877441,4.338315963745117
1717012782835885600,1.870885498046875,19.119220733642578,-8.65077018737793,2.6506528854370117
1717012782845770200,1.880770263671875,21.66017723083496,-8.756616592407227,-1.3258780241012573
1717012782855655200,1.8906552734375,20.629741668701172,-5.719693183898926,-5.893503189086914
1717012782865539800,1.900539794921875,15.679794311523438,-3.9261550903320312,-7.912403106689453
1717012782875424800,1.9104248046875,8.317436218261719,-3.3577239513397217,-7.968323230743408
1717012782885309700,1.920309814453125,0.8883510231971741,-2.4445788860321045,-7.62025785446167
1717012782895194400,1.9301943359375,-4.713321208953857,-1.1796619892120361,-7.879406929016113
1717012782905079000,1.9400791015625,-7.81385612487793,-0.07332900166511536,-8.650725364685059
1717012782914963700,1.949963623046875,-8.756685256958008,0.6213359832763672,-9.443780899047852
1717012782924848600,1.9598486328125,-8.557348251342773,0.897068977355957,-10.04782485961914
1717012782934733300,1.9697333984375,-8.058676719665527,0.7584549784660339,-10.523859024047852
1717012782944618200,1.9796181640625,-7.748542785644531,0.4075640141963959,-10.95108699798584
1717012782954503200,1.989503173828125,-7.6244330406188965,0.41565099358558655,-11.517669677734375
1717012782964387800,1.999387939453125,-7.842745780944824,0.7197200059890747,-11.73813533782959
1717012782974272800,2.009272705078125,-8.10379695892334,1.1061760187149048,-11.360108375549316
1717012782984157400,2.019157470703125,-8.194236755371094,1.4489409923553467,-10.206487655639648
1717012782994042000,2.0290419921875,-8.299388885498047,1.7887530326843262,-8.332389831542969
1717012783003927000,2.038927001953125,-8.593111038208008,1.9006019830703735,-5.8667120933532715
1717012783013812000,2.04881201171875,-8.530488967895508,1.5988810062408447,-3.2509689331054688
1717012783023696600,2.058696533203125,-8.009990692138672,1.1911050081253052,-1.2055749893188477
1717012783033581300,2.068581298828125,-7.0959930419921875,0.912883996963501,0.12193900346755981
1717012783043466200,2.07846630859375,-6.194394111633301,0.6479079723358154,0.6343510150909424
1717012783053351200,2.08835107421875,-5.475515842437744,0.15432600677013397,0.5610809922218323
1717012783063235800,2.09823583984375,-4.81561279296875,-0.12533800303936005,0.24006499350070953
1717012783073120800,2.108120849609375,-3.9268898963928223,-0.08107099682092667,-0.05354699864983559
1717012783083005400,2.11800537109375,-3.43831205368042,-0.05525700002908707,-0.014038000255823135
1717012783092890000,2.12789013671875,-3.530648946762085,0.21419300138950348,0.25116899609565735
1717012783102775000,2.137775146484375,-3.7253189086914062,0.4985550045967102,0.6897349953651428
1717012783112659700,2.14765966796875,-3.664254903793335,0.6212440133094788,1.4581880569458008
1717012783122544600,2.157544677734375,-3.5506041049957275,0.7769950032234192,2.35775089263916
1717012783132429300,2.16742919921875,-3.5084829330444336,1.029595971107483,2.696600914001465
1717012783142314200,2.177314208984375,-3.458786964416504,0.958076000213623,2.3876800537109375
1717012783152199000,2.187198974609375,-3.0558290481567383,0.6168609857559204,1.9005440473556519
1717012783162083800,2.197083740234375,-2.498262882232666,0.8574879765510559,1.3404350280761719
1717012783171968800,2.20696875,-2.1850109100341797,1.5115909576416016,1.4763480424880981
1717012783181853400,2.216853515625,-1.468008041381836,1.5828720331192017,1.9370779991149902
1717012783191738000,2.226738037109375,-0.42320701479911804,1.3278980255126953,2.6320629119873047
1717012783201622800,2.236622802734375,0.5678330063819885,0.8919180035591125,4.113649845123291
1717012783211507700,2.2465078125,1.1094670295715332,0.7935349941253662,5.941319942474365
1717012783221392600,2.256392578125,1.226773977279663,0.8916270136833191,7.339456081390381
1717012783231277300,2.26627734375,1.1750190258026123,0.5141019821166992,8.413965225219727
1717012783241162200,2.276162353515625,0.6792150139808655,0.38248100876808167,8.943971633911133
1717012783251047000,2.286046875,0.984171986579895,1.5651849508285522,9.282377243041992
1717012783260931800,2.295931884765625,2.9657371044158936,2.271347999572754,10.508302688598633
1717012783270816800,2.305816650390625,7.920589923858643,2.4970779418945312,11.10664176940918
1717012783280701400,2.315701416015625,9.719672203063965,1.982463002204895,10.398914337158203
1717012783290586000,2.325586181640625,8.716537475585938,0.7851700186729431,10.54153060913086
1717012783300470800,2.335470703125,6.546030044555664,1.1073360443115234,8.812423706054688
1717012783310355700,2.345355712890625,4.3368239402771,1.7378690242767334,8.41234016418457
1717012783320240400,2.355240478515625,4.1974592208862305,1.072695016860962,9.90907096862793
1717012783330125300,2.365125244140625,7.672368049621582,0.06055599823594093,10.001659393310547
1717012783340010200,2.37501025390625,13.40749454498291,-0.853954017162323,7.833323955535889
1717012783349895000,2.38489501953125,18.194795608520508,-1.6583640575408936,4.135459899902344
1717012783359779800,2.39477978515625,19.872636795043945,-2.4010910987854004,-0.36043500900268555
1717012783369664800,2.404664794921875,17.702909469604492,-2.118472099304199,-3.727545976638794
1717012783379549400,2.414549560546875,12.255928039550781,-1.5659780502319336,-4.773237228393555
1717012783389433900,2.424433837890625,5.671942234039307,-1.3735820055007935,-4.521789073944092
1717012783399318800,2.43431884765625,0.1823520064353943,-1.242864966392517,-4.978230953216553
1717012783409203700,2.44420361328125,-2.6765170097351074,-0.479092001914978,-5.883386135101318
1717012783419088400,2.45408837890625,-3.6204121112823486,-0.1432739943265915,-6.279508113861084
1717012783428973300,2.463973388671875,-3.8923299312591553,-0.09541899710893631,-6.4796061515808105
1717012783438858000,2.47385791015625,-4.02186393737793,-0.40833500027656555,-6.722085952758789
1717012783448742700,2.48374267578125,-4.126290798187256,-0.744268000125885,-7.167269229888916
1717012783458627600,2.493627685546875,-4.825831890106201,-1.7466150522232056,-8.98181438446045
1717012783468512300,2.50351220703125,-4.908664226531982,-0.9092910289764404,-10.076650619506836
1717012783478397200,2.513397216796875,-4.19493293762207,-0.3474330008029938,-9.45012092590332
1717012783488281900,2.52328173828125,-4.507946014404297,-0.6827459931373596,-9.28089714050293
1717012783498166800,2.533166748046875,-4.772756099700928,-0.9005969762802124,-9.159917831420898
1717012783508051700,2.5430517578125,-4.423805236816406,-0.7588779926300049,-9.159934043884277
1717012783517936400,2.552936279296875,-3.8438448905944824,-0.5471019744873047,-8.822346687316895
1717012783527821300,2.5628212890625,-3.9446749687194824,-0.4704810082912445,-7.697877883911133
1717012783537706000,2.5727060546875,-4.21013879776001,-0.5123850107192993,-6.071901798248291
1717012783547590700,2.582590576171875,-3.8313119411468506,-0.9235079884529114,-4.299921989440918
1717012783557475600,2.5924755859375,-3.438649892807007,-1.5684070587158203,-3.1183369159698486
1717012783567360300,2.6023603515625,-2.948518991470337,-1.8395249843597412,-2.965869903564453
1717012783577245200,2.6122451171875,-2.794015884399414,-1.7220209836959839,-3.6158950328826904
1717012783587129900,2.6221298828125,-3.2640130519866943,-1.358415961265564,-3.689517021179199
1717012783597014800,2.632014892578125,-4.020811080932617,-1.2803319692611694,-3.94441294670105
1717012783606899500,2.6418994140625,-4.838247776031494,-1.2234660387039185,-4.134729862213135
1717012783616784400,2.651784423828125,-5.366598129272461,-1.185973048210144,-3.1853840351104736
1717012783626669300,2.66166943359375,-5.834078788757324,-1.119176983833313,-0.9827070236206055
1717012783636554000,2.671553955078125,-6.136063098907471,-0.9737420082092285,1.3410340547561646
1717012783646438700,2.681438720703125,-5.899250030517578,-0.6677939891815186,2.3640270233154297
1717012783656323300,2.6913232421875,-5.40500020980835,-0.16063499450683594,2.159221887588501
1717012783666208300,2.701208251953125,-5.064000129699707,0.07389199733734131,1.8617769479751587
1717012783676093200,2.71109326171875,-4.992000102996826,0.3295139968395233,1.9550210237503052
1717012783685977900,2.720977783203125,-4.691199779510498,0.9380109906196594,2.249617099761963
1717012783695862500,2.730862548828125,-3.892159938812256,1.312008023262024,2.598893880844116
1717012783705747500,2.74074755859375,-3.0601279735565186,1.4368070363998413,2.6863150596618652
1717012783715632400,2.75063232421875,-2.1209020614624023,1.8118449449539185,2.5370519161224365
1717012783725517000,2.76051708984375,-0.8999220132827759,2.199075937271118,2.1736409664154053
1717012783735401700,2.770401611328125,-0.13353699445724487,2.408859968185425,2.667712926864624
1717012783745286400,2.780286376953125,0.10196900367736816,2.083888053894043,4.575770854949951
1717012783755171300,2.79017138671875,0.20237499475479126,1.8167099952697754,6.827816963195801
1717012783765056300,2.80005615234375,0.29789999127388,2.2389678955078125,8.897453308105469
1717012783774941000,2.80994091796875,0.3631199896335602,2.9615750312805176,10.493962287902832
1717012783784825900,2.819825927734375,0.9304959774017334,3.285259962081909,11.393570899963379
1717012783794710500,2.82971044921875,1.6811970472335815,3.137808084487915,11.82845687866211
1717012783804595500,2.839595458984375,1.9977569580078125,2.7998459339141846,11.359565734863281
1717012783814480100,2.849480224609375,2.128606081008911,3.2286770343780518,9.67325210571289
1717012783824364800,2.85936474609375,2.3388850688934326,4.461341857910156,7.549001216888428
1717012783834249700,2.869249755859375,5.1551079750061035,5.3642730712890625,5.955202102661133
1717012783844134400,2.879134521484375,5.170485973358154,4.791418075561523,6.588160991668701
1717012783854019300,2.889019287109375,4.000389099121094,3.1971349716186523,8.673728942871094
1717012783863904000,2.898904052734375,4.8043107986450195,2.2609078884124756,11.006183624267578
1717012783873789000,2.908788818359375,5.873848915100098,2.0383260250091553,12.033746719360352
1717012783883673600,2.918673583984375,7.339879035949707,1.7882599830627441,10.023799896240234
1717012783893558500,2.92855859375,8.962303161621094,0.5890079736709595,5.987837791442871
1717012783903443200,2.938443115234375,11.417841911315918,-0.6511920094490051,1.491068959236145
1717012783913328000,2.948328125,13.447073936462402,-1.6457539796829224,-1.5687439441680908
1717012783923212800,2.958212890625,13.183258056640625,-2.6782031059265137,-3.1245970726013184
1717012783933097500,2.968097412109375,10.734607696533203,-2.880162000656128,-3.944478988647461
1717012783942982400,2.977982421875,8.022087097167969,-2.798530101776123,-4.553983211517334
1717012783952867000,2.9878671875,6.425670146942139,-3.3764240741729736,-4.789585113525391
1717012783962752000,2.997751953125,5.964535236358643,-3.9699389934539795,-4.870067119598389
1717012783972637000,3.007636962890625,5.990029811859131,-4.29115104675293,-5.492053985595703
1717012783982521300,3.017521240234375,5.512022018432617,-4.693720817565918,-6.537642955780029
1717012783992406300,3.02740625,3.908018112182617,-4.890976905822754,-7.885313034057617
1717012784002291200,3.037291259765625,1.6032140254974365,-4.782381057739258,-9.529050827026367
1717012784012176000,3.04717578125,-1.0262290239334106,-4.222704887390137,-11.181640625
1717012784022060500,3.057060546875,-3.7505829334259033,-3.577363967895508,-12.38851261138916
1717012784031945500,3.066945556640625,-5.8516669273376465,-2.64349102973938,-12.840410232543945
1717012784041830100,3.076830078125,-6.978932857513428,-1.716392993927002,-12.361928939819336
1717012784051715000,3.086715087890625,-7.286345958709717,-0.9627150297164917,-10.987142562866211
1717012784061599700,3.096599853515625,-7.131476879119873,-0.4813709855079651,-9.28011417388916
1717012784071484400,3.106484375,-6.597980976104736,-0.2714970111846924,-7.7192912101745605
1717012784081369600,3.11636962890625,-5.908785820007324,-0.2715969979763031,-6.436233043670654
1717012784091254000,3.12625390625,-5.48062801361084,-0.4220789968967438,-5.539385795593262
1717012784101139000,3.136138916015625,-5.399702072143555,-0.5632619857788086,-5.004309177398682
1717012784111023600,3.146023681640625,-5.5789618492126465,-0.5602099895477295,-4.534646987915039
1717012784120908500,3.155908447265625,-5.86876916885376,-0.45376700162887573,-3.9325180053710938
1717012784130793200,3.165793212890625,-6.172616004943848,-0.25741299986839294,-3.130013942718506
1717012784140678100,3.17567822265625,-6.509292125701904,-0.06673099845647812,-2.29521107673645
1717012784150563000,3.18556298828125,-6.653833866119385,0.09861499816179276,-1.56256902217865
1717012784160447700,3.19544775390625,-6.560667037963867,0.3196919858455658,-0.7500550150871277
1717012784170332400,3.20533251953125,-6.318933010101318,0.4781540036201477,-0.15684400498867035
1717012784180217300,3.21521728515625,-6.061546802520752,0.42652300000190735,0.05212400108575821
1717012784190102000,3.22510205078125,-5.519637107849121,0.0636179968714714,0.37929999828338623
1717012784199987000,3.234987060546875,-4.676509857177734,-0.22510500252246857,0.9186400175094604
1717012784209871600,3.24487158203125,-3.7948079109191895,-0.3408829867839813,1.3725110292434692
1717012784219756300,3.25475634765625,-3.298245906829834,-0.31270599365234375,1.6460089683532715
1717012784229641200,3.26464111328125,-3.274596929550171,0.12503400444984436,1.544806957244873
1717012784239526000,3.27452587890625,-3.3932769298553467,0.9392269849777222,1.2702460289001465
1717012784249410800,3.284410888671875,-3.4546220302581787,1.7345819473266602,1.0913959741592407
1717012784259295500,3.29429541015625,-3.3692970275878906,2.1172659397125244,0.7387170195579529
1717012784269180400,3.304180419921875,-3.4386379718780518,1.828212022781372,0.42777299880981445
1717012784279065000,3.314065185546875,-3.634110927581787,1.2017699480056763,0.16621899604797363
1717012784288949800,3.32394970703125,-3.489687919616699,0.9254159927368164,-0.10862399637699127
1717012784298834700,3.333834716796875,-2.4853498935699463,0.8339319825172424,0.1298999935388565
1717012784308719400,3.34371923828125,-0.5418800115585327,0.9255459904670715,1.019919991493225
1717012784318604000,3.35360400390625,1.0288950204849243,0.846036970615387,3.336735963821411
1717012784328489000,3.363489013671875,1.6239160299301147,0.8744289875030518,6.46298885345459
1717012784338373600,3.37337353515625,1.7111330032348633,1.2395429611206055,9.227991104125977
1717012784348258600,3.383258544921875,1.2809059619903564,1.5876350402832031,10.927192687988281
1717012784358143500,3.3931435546875,0.32712501287460327,1.6645070314407349,11.02015495300293
1717012784368028200,3.403028076171875,-0.4470990002155304,1.1596059799194336,9.768123626708984
1717012784377913000,3.4129130859375,-0.7680789828300476,0.5444849729537964,9.498498916625977
1717012784387797800,3.4227978515625,-0.03366300091147423,0.9179869890213013,9.327598571777344
1717012784397682400,3.432682373046875,3.038667917251587,1.4399900436401367,9.88528060913086
1717012784407567000,3.442567138671875,5.4341349601745605,1.5959919691085815,11.06982421875
1717012784417452000,3.4524521484375,6.613708019256592,1.2407939434051514,12.671058654785156
1717012784427336700,3.462336669921875,7.868566036224365,1.3430349826812744,12.951248168945312
1717012784437221600,3.4722216796875,8.06285285949707,1.7352279424667358,11.648197174072266
1717012784447106300,3.482106201171875,7.716681957244873,1.3673820495605469,8.701757431030273
1717012784456991200,3.4919912109375,8.08774471282959,-0.02289300039410591,5.28700590133667
1717012784466876000,3.5018759765625,10.13339614868164,-1.9231139421463013,2.8904030323028564
1717012784476760600,3.511760498046875,13.038717269897461,-3.9352920055389404,1.739524006843567
1717012784486645500,3.5216455078125,15.623773574829102,-5.261834144592285,0.8604199886322021
1717012784496530200,3.5315302734375,16.53742027282715,-4.415866851806641,-0.6012639999389648
1717012784506414800,3.541414794921875,15.266735076904297,-3.165493965148926,-1.9978100061416626
1717012784516299800,3.5512998046875,12.834188461303711,-3.3139939308166504,-2.706247091293335
1717012784526184400,3.561184326171875,9.414548873901367,-2.8999950885772705,-3.8817970752716064
1717012784536069400,3.5710693359375,5.4644389152526855,-1.9615960121154785,-5.551837921142578
1717012784545954300,3.580954345703125,1.5819510221481323,-1.2932759523391724,-7.200672149658203
1717012784555838700,3.590838623046875,-1.709637999534607,-0.9714210033416748,-8.402936935424805
1717012784565723600,3.6007236328125,-4.195711135864258,-0.6011369824409485,-9.540749549865723
1717012784575608300,3.6106083984375,-5.997367858886719,-0.36570900678634644,-10.429400444030762
1717012784585493000,3.620492919921875,-7.068294048309326,-0.06456699967384338,-11.053119659423828
1717012784595378000,3.6303779296875,-7.429035186767578,0.3563460111618042,-11.340895652770996
1717012784605262600,3.6402626953125,-7.332027912139893,0.7586759924888611,-11.303116798400879
1717012784615147500,3.6501474609375,-6.986423015594482,0.9901400208473206,-11.08249282836914
1717012784625032400,3.660032470703125,-6.52033805847168,1.220911979675293,-10.662795066833496
1717012784634917000,3.669917236328125,-5.929070949554443,1.4783300161361694,-9.789436340332031
1717012784644801800,3.6798017578125,-5.365657806396484,1.3474639654159546,-8.519548416137695
1717012784654686500,3.6896865234375,-4.942124843597412,0.9675710201263428,-7.240438938140869
1717012784664571100,3.699571044921875,-4.596100807189941,0.6108570098876953,-6.0795512199401855
1717012784674456000,3.7094560546875,-4.1768798828125,0.24148499965667725,-5.110840797424316
1717012784684341000,3.719341064453125,-3.488703966140747,0.061188001185655594,-4.3190717697143555
1717012784694225700,3.7292255859375,-2.754962921142578,-0.18304899334907532,-3.4512579441070557
1717012784704110300,3.7391103515625,-2.378371000289917,-0.3384389877319336,-2.6362059116363525
1717012784713995300,3.748995361328125,-2.6058969497680664,-0.3835510015487671,-2.049765110015869
1717012784723879700,3.758879638671875,-3.220716953277588,-0.5156409740447998,-1.39821195602417
1717012784733764600,3.7687646484375,-3.75097393989563,-0.40291300415992737,-0.827368974685669
1717012784743649500,3.7786494140625,-4.242379188537598,-0.23193000257015228,-0.15469500422477722
1717012784753534200,3.7885341796875,-4.6339030265808105,-0.15914399921894073,0.6370429992675781
1717012784763419100,3.798419189453125,-4.852723121643066,-0.13691499829292297,1.2856340408325195
1717012784773303800,3.8083037109375,-4.92537784576416,0.0744670033454895,1.543707013130188
1717012784783188500,3.8181884765625,-4.724302768707275,0.4811739921569824,1.4285659790039062
1717012784793073200,3.8280732421875,-4.3634419441223145,0.9273390173912048,0.9092519879341125
1717012784802958000,3.8379580078125,-3.894753932952881,1.3186719417572021,0.42900198698043823
1717012784812842800,3.8478427734375,-3.4710030555725098,1.5781370401382446,0.19360099732875824
1717012784822727400,3.8577275390625,-3.1096019744873047,1.7025099992752075,0.07008100301027298
1717012784832612400,3.8676123046875,-2.744481086730957,1.7012079954147339,-0.10633400082588196
1717012784842497000,3.8774970703125,-2.4195849895477295,1.5049660205841064,-0.21546700596809387
1717012784852381700,3.887381591796875,-1.9260679483413696,1.0527729988098145,0.025225000455975533
1717012784862266400,3.897266357421875,-1.2960540056228638,0.6254180073738098,0.5617799758911133
1717012784872151300,3.9071513671875,-0.5904430150985718,0.4867349863052368,1.3238240480422974
1717012784882036000,3.917035888671875,0.2612450122833252,0.7229880094528198,2.4646589756011963
1717012784891921000,3.9269208984375,0.82259601354599,1.1055899858474731,3.7669270038604736
1717012784901805600,3.9368056640625,0.7132769823074341,1.2980719804763794,5.351141929626465
1717012784911690500,3.9466904296875,0.0858210027217865,1.176056981086731,7.16251277923584
1717012784921575200,3.9565751953125,-0.46334201097488403,0.933646023273468,8.326009750366211
1717012784931459800,3.9664599609375,-0.7346739768981934,0.8965160250663757,8.416008949279785
1717012784941344500,3.976344482421875,-1.0157389640808105,1.2244130373001099,7.724806785583496
1717012784951229400,3.9862294921875,-1.4653910398483276,1.44753098487854,6.705444812774658
1717012784961114000,3.996114013671875,-1.6075129508972168,1.5988240242004395,6.0403571128845215
1717012784970999000,4.0059990234375,-1.0292099714279175,1.7862590551376343,5.933885097503662
1717012784980883700,4.0158837890625,-0.2889679968357086,1.258607029914856,7.036707878112793
1717012784990768400,4.025768310546875,0.9128249883651733,0.17968599498271942,9.35816764831543
1717012785000653300,4.0356533203125,2.843859910964966,0.0037479999009519815,11.730533599853516
1717012785010538000,4.0455380859375,4.830287933349609,0.47419899702072144,12.970827102661133
1717012785020423000,4.0554228515625,7.161830902099609,0.6433590054512024,11.23505973815918
1717012785030307300,4.065307373046875,8.354264259338379,0.013086999766528606,7.750450134277344
1717012785040192300,4.075192138671875,8.153011322021484,-1.0527299642562866,4.801959991455078
1717012785050077000,4.085076904296875,7.940009117126465,-1.9037840366363525,2.6991689205169678
1717012785059961900,4.0949619140625,8.448007583618164,-3.305427074432373,1.8241339921951294
1717012785069846500,4.104846435546875,9.925605773925781,-5.196341037750244,2.059307098388672
1717012785079731200,4.114731201171875,12.372485160827637,-6.517073154449463,2.404244899749756
1717012785089616100,4.1246162109375,14.419588088989258,-6.996057987213135,1.5993969440460205
1717012785099500800,4.134500732421875,14.789267539978027,-5.805647850036621,-0.5964829921722412
1717012785109385500,4.144385498046875,13.13381576538086,-4.16931676864624,-3.2667860984802246
1717012785119270400,4.1542705078125,9.802251815795898,-3.0114541053771973,-5.483027935028076
1717012785129155000,4.164155029296875,5.632998943328857,-2.2211620807647705,-6.912021160125732
1717012785139040000,4.1740400390625,1.791200041770935,-1.5145299434661865,-7.522418975830078
1717012785148924700,4.183924560546875,-1.1670390367507935,-0.7924249768257141,-7.605935096740723
1717012785158809300,4.193809326171875,-3.276829957962036,-0.1275389939546585,-7.699946880340576
1717012785168694000,4.203694091796875,-4.844665050506592,0.23076799511909485,-7.775158882141113
1717012785178579000,4.213578857421875,-5.682131767272949,0.5446140170097351,-7.843327045440674
1717012785188463600,4.223463623046875,-5.904106140136719,0.6604909896850586,-7.742661952972412
1717012785198348300,4.233348388671875,-5.729684829711914,0.6107929944992065,-7.680530071258545
1717012785208233000,4.24323291015625,-5.406949043273926,0.6950349807739258,-7.780424118041992
1717012785218118000,4.253117919921875,-5.0823588371276855,0.7632269859313965,-7.876339912414551
1717012785228002800,4.2630029296875,-4.744287014007568,0.988182008266449,-7.955471992492676
1717012785237887500,4.272887451171875,-4.441029071807861,1.1737459897994995,-7.67877721786499
1717012785247772200,4.282772216796875,-4.463223934173584,1.1477960348129272,-7.116621971130371
1717012785257657000,4.292656982421875,-4.700979232788086,1.0886369943618774,-6.562897205352783
1717012785267541500,4.30254150390625,-4.874382972717285,1.1549090147018433,-6.045517921447754
1717012785277426400,4.312426513671875,-4.851507186889648,1.3759269714355469,-5.392414093017578
1717012785287311000,4.32231103515625,-4.745205879211426,1.6599409580230713,-4.572330951690674
1717012785297196000,4.332196044921875,-4.455364227294922,1.8951539993286133,-3.5890650749206543
1717012785307080700,4.342080810546875,-4.00269079208374,2.0049219131469727,-2.464850902557373
1717012785316965400,4.35196533203125,-3.524553060531616,2.0463380813598633,-1.3854809999465942
1717012785326850000,4.36185009765625,-3.112442970275879,1.987470030784607,-0.49558499455451965
1717012785336734700,4.371734619140625,-2.702754020690918,1.732375979423523,0.130731001496315
1717012785346619600,4.38161962890625,-2.338202953338623,1.3091000318527222,0.39018499851226807
1717012785356504300,4.39150439453125,-2.1177620887756348,0.9744799733161926,0.3905479907989502
1717012785366389200,4.40138916015625,-1.9934099912643433,0.8083840012550354,0.4116379916667938
1717012785376274000,4.41127392578125,-2.186728000640869,0.845907986164093,0.4045099914073944
1717012785386158800,4.421158935546875,-2.718981981277466,0.9295259714126587,0.5764080286026001
1717012785396043500,4.43104345703125,-3.274385929107666,0.9540209770202637,0.9251270294189453
1717012785405928200,4.44092822265625,-3.640307903289795,1.07041597366333,1.1553009748458862
1717012785415812900,4.450812744140625,-3.736246109008789,1.3403329849243164,1.0314409732818604
1717012785425697500,4.460697509765625,-3.5009970664978027,1.5474660396575928,0.6875529885292053
1717012785435582500,4.47058251953125,-2.9807980060577393,1.9187719821929932,0.3908419907093048
1717012785445467100,4.480467041015625,-2.175837993621826,2.147818088531494,0.3430730104446411
1717012785455352000,4.49035205078125,-1.5222699642181396,1.869454026222229,0.4648590087890625
1717012785465236700,4.50023681640625,-1.33461594581604,1.1987639665603638,0.7894870042800903
1717012785475121400,4.510121337890625,-1.2108930349349976,0.5662109851837158,1.548388957977295
1717012785485006300,4.52000634765625,-1.0919140577316284,0.07136800140142441,2.2539119720458984
1717012785494890800,4.529890869140625,-0.6815310120582581,-0.24530500173568726,2.6407289505004883
1717012785504775700,4.539775634765625,-0.03402499854564667,-0.501043975353241,2.6549830436706543
1717012785514660400,4.549660400390625,0.6455789804458618,-0.4240350127220154,2.282386064529419
1717012785524545300,4.559545166015625,1.4436639547348022,-0.21042799949645996,2.1539089679718018
1717012785534430000,4.569429931640625,1.9109309911727905,-0.23554199934005737,2.221527099609375
1717012785544314600,4.579314697265625,1.8471440076828003,-0.30923399329185486,2.342021942138672
1717012785554199300,4.58919921875,1.2761149406433105,-0.2609870135784149,2.75361704826355
1717012785564084000,4.599083984375,0.3360919952392578,-0.240788996219635,3.219693899154663
1717012785573969000,4.608968994140625,-0.5743250250816345,-0.037432000041007996,3.95735502243042
1717012785583853600,4.618853515625,-1.1818599700927734,0.2588540017604828,4.867484092712402
1717012785593738500,4.628738525390625,-1.2326879501342773,0.3910830020904541,5.329186916351318
1717012785603623200,4.638623046875,-0.7965499758720398,0.3224659860134125,5.06974983215332
1717012785613507800,4.6485078125,-0.06843999773263931,-0.24762600660324097,4.498198986053467
1717012785623392500,4.658392578125,1.1260470151901245,-1.1005009412765503,3.9649600982666016
1717012785633277400,4.66827734375,2.268038034439087,-1.208400011062622,3.215967893600464
1717012785643162000,4.678162109375,2.795229911804199,-1.0931199789047241,2.6567740440368652
1717012785653046800,4.688046875,2.682584047317505,-1.3952959775924683,2.647020101547241
1717012785662931500,4.697931396484375,2.074867010116577,-2.0706369876861572,3.3704159259796143
1717012785672816400,4.70781640625,1.7102940082550049,-2.865309000015259,4.811532974243164
1717012785682701000,4.717701171875,2.1898350715637207,-3.7330470085144043,6.166027069091797
1717012785692585700,4.727585693359375,3.503067970275879,-4.896838188171387,6.615222930908203
1717012785702470700,4.737470703125,5.613654136657715,-5.961470127105713,5.899378776550293
1717012785712355000,4.74735498046875,8.165324211120605,-6.4131760597229,4.713902950286865
1717012785722240000,4.757239990234375,10.383459091186523,-6.527339935302734,3.362320899963379
1717012785732124700,4.767124755859375,12.399568557739258,-6.067471981048584,2.389056921005249
1717012785742009600,4.777009521484375,13.464454650878906,-5.201976776123047,1.8736449480056763
1717012785751894300,4.786894287109375,13.229961395263672,-4.073581218719482,1.569316029548645
1717012785761779000,4.796779052734375,11.336771011352539,-2.5020649433135986,0.32265201210975647
1717012785771663600,4.80666357421875,8.083017349243164,-0.7408519983291626,-1.2362780570983887
1717012785781548500,4.816548583984375,4.013614177703857,0.20571699738502502,-2.311422109603882
1717012785791433200,4.82643310546875,0.010889999568462372,0.5157729983329773,-3.189937114715576
1717012785801318000,4.83631787109375,-3.0760879516601562,1.0814169645309448,-3.820749044418335
1717012785811202600,4.84620263671875,-4.938470840454102,1.853134036064148,-4.259800910949707
1717012785821087500,4.85608740234375,-5.508376121520996,2.6033060550689697,-4.904641151428223
1717012785830972200,4.86597216796875,-5.173099994659424,2.9242451190948486,-5.082111835479736
1717012785840857000,4.875857177734375,-4.433680057525635,2.793795108795166,-4.844089984893799
1717012785850741800,4.88574169921875,-3.7725439071655273,2.742237091064453,-4.919271945953369
1717012785860626200,4.895626220703125,-3.3876359462738037,2.5081889629364014,-5.083417892456055
1717012785870511000,4.905510986328125,-3.1437089443206787,1.8705509901046753,-5.0555338859558105
1717012785880395800,4.915395751953125,-2.9365670680999756,1.6340399980545044,-5.2260260581970215
1717012785890280700,4.92528076171875,-2.6780529022216797,1.6216319799423218,-5.284821033477783
1717012785900165400,4.935165283203125,-2.223241090774536,1.4717060327529907,-4.917457103729248
1717012785910050000,4.945050048828125,-1.568192958831787,1.3749639987945557,-4.186765193939209
1717012785919934700,4.954934814453125,-1.4457550048828125,1.3447719812393188,-3.636612892150879
1717012785929819400,4.9648193359375,-1.6622029542922974,1.135817050933838,-3.4116899967193604
1717012785939704000,4.9747041015625,-1.7977620363235474,0.9558539986610413,-3.3005518913269043
1717012785949589000,4.984589111328125,-1.9686089754104614,0.8278819918632507,-3.188441038131714
1717012785959473700,4.9944736328125,-2.113287925720215,0.6223049759864807,-3.0755529403686523
1717012785969358600,5.004358642578125,-2.053030014038086,0.5978450179100037,-3.0556418895721436
1717012785979243000,5.014242919921875,-2.021622896194458,0.5966759920120239,-2.9541139602661133
1717012785989127700,5.024127685546875,-2.100498914718628,0.4677410125732422,-2.7312910556793213
1717012785999012600,5.0340126953125,-2.3139989376068115,0.41499200463294983,-2.667433023452759
1717012786008897300,5.043897216796875,-2.658400058746338,0.492794007062912,-2.592345952987671
1717012786018782200,5.0537822265625,-3.1091198921203613,0.7198349833488464,-2.477876901626587
1717012786028666600,5.06366650390625,-3.543294906616211,1.096668004989624,-2.3575010299682617
1717012786038551600,5.073551513671875,-3.7026360034942627,1.5485349893569946,-2.034001111984253
1717012786048436000,5.08343603515625,-3.732508897781372,1.8996280431747437,-1.5408010482788086
1717012786058321000,5.09332080078125,-3.813206911087036,2.1061019897460938,-1.0486409664154053
1717012786068205600,5.10320556640625,-3.9601659774780273,2.1960809230804443,-0.5821120142936707
1717012786078090500,5.113090576171875,-3.9689319133758545,2.307265043258667,-0.2512899935245514
1717012786087975200,5.12297509765625,-3.7767460346221924,2.564210891723633,0.0077669997699558735
1717012786097859800,5.13285986328125,-3.507796049118042,2.684969902038574,0.18861399590969086
1717012786107744500,5.14274462890625,-3.174237012863159,2.606374979019165,0.3380909860134125
1717012786117629200,5.152629150390625,-2.6449899673461914,2.491499900817871,0.34007298946380615
1717012786127513900,5.162513916015625,-1.9015920162200928,2.3684000968933105,0.3096579909324646
1717012786137398800,5.172398681640625,-1.3068729639053345,2.147520065307617,0.5181260108947754
1717012786147283500,5.182283447265625,-1.1374980211257935,1.7492159605026245,0.866500973701477
1717012786157168000,5.192168212890625,-1.1835989952087402,1.2857719659805298,1.1996010541915894
1717012786167052800,5.202052734375,-1.0676790475845337,0.9638180136680603,1.4356800317764282
1717012786176937500,5.2119375,-0.6029430031776428,0.6846539974212646,1.6061439514160156
1717012786186822400,5.221822509765625,0.02884499914944172,0.426923006772995,1.928915023803711
1717012786196707000,5.23170703125,0.624675989151001,0.1655389964580536,2.5855319499969482
1717012786206591700,5.241591796875,1.1397409439086914,-0.17796799540519714,3.1508259773254395
1717012786216476700,5.2514765625,1.5037920475006104,-0.48957398533821106,3.2334609031677246
1717012786226361000,5.261361083984375,1.5246340036392212,-0.6324589848518372,2.8267691135406494
1717012786236245800,5.271245849609375,1.259706974029541,-0.44516798853874207,2.2326149940490723
1717012786246130700,5.281130615234375,0.8805649876594543,-0.2681339979171753,1.713291049003601
1717012786256015400,5.291015380859375,0.4316520094871521,-0.26810699701309204,1.7074329853057861
1717012786265900000,5.300900146484375,-0.014677000232040882,-0.12968599796295166,2.6883459091186523
1717012786275785000,5.310784912109375,-0.6173419952392578,0.017051000148057938,4.371477127075195
1717012786285669600,5.320669677734375,-1.1586730480194092,-0.0151589997112751,5.678781986236572
1717012786295554300,5.33055419921875,-1.3445390462875366,-0.2561269998550415,6.007024765014648
1717012786305439000,5.34043896484375,-1.5068310499191284,-0.41930100321769714,5.551220893859863
1717012786315323600,5.35032373046875,-1.5118650197982788,-0.4522410035133362,3.932976007461548
1717012786325208300,5.360208251953125,-1.1134920120239258,-0.6705930233001709,1.7111810445785522
1717012786335093200,5.37009326171875,-0.09399300068616867,-1.13167405128479,0.1809449940919876
1717012786344978000,5.37997802734375,2.635205030441284,-1.737339973449707,-0.31844401359558105
1717012786354862600,5.389862548828125,3.9745640754699707,-2.1002719402313232,1.2852449417114258
1717012786364747500,5.39974755859375,3.447650909423828,-2.6842169761657715,4.358595848083496
1717012786374632000,5.4096318359375,3.8373210430145264,-2.6593739986419678,6.114076137542725
1717012786384516600,5.4195166015625,3.9242560863494873,-2.4186980724334717,6.54486083984375
1717012786394401500,5.429401611328125,3.8746049404144287,-2.565359115600586,4.861487865447998
1717012786404286200,5.4392861328125,4.678884029388428,-3.5098869800567627,2.5427889823913574
1717012786414171000,5.4491708984375,6.4543070793151855,-4.580708980560303,1.225430965423584
1717012786424055800,5.459055908203125,8.903446197509766,-5.0533671379089355,1.0995440483093262
1717012786433940500,5.4689404296875,10.981955528259277,-5.049094200134277,1.6652350425720215
1717012786443825000,5.478824951171875,11.984766006469727,-4.613676071166992,2.035388946533203
1717012786453709800,5.488709716796875,11.6574125289917,-3.54374098777771,2.013111114501953
1717012786463594500,5.498594482421875,9.885129928588867,-2.9229910373687744,1.3456870317459106
1717012786473479200,5.508479248046875,7.563304901123047,-2.5703940391540527,0.0021510000806301832
1717012786483364000,5.518364013671875,4.99864387512207,-2.3859150409698486,-1.5334789752960205
1717012786493248800,5.528248779296875,2.305316925048828,-2.249530076980591,-2.529184103012085
1717012786503133400,5.538133544921875,0.26345399022102356,-1.6076240539550781,-2.848947048187256
1717012786513018000,5.54801806640625,-1.1804369688034058,-0.7556989789009094,-2.9727590084075928
1717012786522902800,5.55790283203125,-1.9899499416351318,0.2290399968624115,-3.244607925415039
1717012786532787500,5.567787353515625,-2.275959014892578,1.290431022644043,-3.6188859939575195
1717012786542672100,5.577672119140625,-2.4031670093536377,1.8947440385818481,-3.7687089443206787
1717012786552556800,5.587556884765625,-2.516932964324951,2.280595064163208,-3.867767095565796
1717012786562441500,5.59744140625,-2.591947078704834,2.502077102661133,-4.015812873840332
1717012786572326400,5.607326416015625,-2.6871581077575684,2.53446102142334,-4.084650039672852
1717012786582211000,5.617211181640625,-3.0689260959625244,2.414768934249878,-4.031720161437988
1717012786592095700,5.627095703125,-3.3215410709381104,2.335814952850342,-3.980576992034912
1717012786601980700,5.636980712890625,-3.414033889770508,2.255851984024048,-3.864461898803711
1717012786611865000,5.646864990234375,-3.555227041244507,1.9270819425582886,-3.653170108795166
1717012786621749800,5.656749755859375,-3.7273809909820557,1.5864650011062622,-3.5625360012054443
1717012786631634700,5.666634765625,-3.9763050079345703,1.281972050666809,-3.5300281047821045
1717012786641519400,5.676519287109375,-4.186643123626709,1.091178059577942,-3.4296228885650635
1717012786651404000,5.686404052734375,-4.270914077758789,0.9377419948577881,-3.3716979026794434
1717012786661288700,5.696288818359375,-4.1887311935424805,1.0165929794311523,-3.3085579872131348
1717012786671173600,5.706173583984375,-3.7917840480804443,1.2444740533828735,-3.1652469635009766
1717012786681058300,5.716058349609375,-3.0142269134521484,1.4019789695739746,-2.8177969455718994
1717012786690942700,5.725942626953125,-2.227381944656372,1.415982961654663,-2.402237892150879
1717012786700827600,5.73582763671875,-1.5715049505233765,1.4263859987258911,-2.17618989944458
1717012786710712300,5.74571240234375,-1.1092040538787842,1.4171080589294434,-2.0193519592285156
1717012786720597000,5.755596923828125,-0.9569630026817322,1.3752870559692383,-1.8562819957733154
1717012786730482000,5.76548193359375,-1.1583709716796875,1.3754290342330933,-1.7570250034332275
1717012786740366600,5.77536669921875,-1.5506960153579712,1.380342960357666,-1.505620002746582
1717012786750251300,5.785251220703125,-1.8389569520950317,1.3858740329742432,-1.2444959878921509
1717012786760136000,5.795135986328125,-2.0439651012420654,1.302299976348877,-1.068397045135498
1717012786770020600,5.8050205078125,-2.169572114944458,1.1490390300750732,-0.8051170110702515
1717012786779905300,5.8149052734375,-2.187657117843628,1.0360310077667236,-0.5136939883232117
1717012786789790200,5.824790283203125,-2.2469260692596436,1.0416250228881836,-0.3669550120830536
1717012786799675000,5.8346748046875,-2.2991409301757812,1.098099946975708,-0.3207640051841736
1717012786809559600,5.8445595703125,-2.396912097930908,1.184880018234253,-0.32701098918914795
1717012786819444000,5.85444384765625,-2.4799299240112305,1.3159040212631226,-0.47040900588035583
1717012786829329000,5.864328857421875,-2.714344024658203,1.6047229766845703,-0.62192702293396
1717012786839213600,5.874213623046875,-2.832274913787842,1.9269779920578003,-0.40154099464416504
1717012786849098200,5.88409814453125,-2.761820077896118,2.0951828956604004,-0.0012329999590292573
1717012786858983200,5.893983154296875,-2.468656063079834,2.030545949935913,0.42061299085617065
1717012786868867600,5.90386767578125,-2.179724931716919,1.739637017250061,0.715690016746521
1717012786878752500,5.91375244140625,-1.8965799808502197,1.351709008216858,1.0397520065307617
1717012786888637200,5.92363720703125,-1.5268629789352417,1.0637680292129517,1.2366019487380981
1717012786898521900,5.93352197265625,-0.9646909832954407,1.0774140357971191,1.006080985069275
1717012786908406500,5.943406494140625,-0.3293519914150238,1.2491309642791748,0.6536650061607361
1717012786918291200,5.953291259765625,-0.024281999096274376,1.1657049655914307,0.7109320163726807
1717012786928176000,5.963176025390625,-0.04022499918937683,0.5397639870643616,1.3071449995040894
1717012786938060500,5.973060546875,-0.23138000071048737,-0.23458799719810486,2.0329160690307617
1717012786947945200,5.9829453125,-0.46110400557518005,-0.9508709907531738,2.836733102798462
1717012786957830100,5.992830078125,-0.4016830027103424,-1.2830959558486938,3.8197860717773438
1717012786967714800,6.00271484375,-0.30054599046707153,-1.2392770051956177,4.621428966522217
1717012786977599500,6.012599609375,-0.11963699758052826,-0.8690209984779358,4.86594295501709
1717012786987484200,6.022484130859375,0.4354900121688843,-0.2816169857978821,4.719954013824463
1717012786997369000,6.032369140625,1.02839195728302,0.12590500712394714,4.109563827514648
1717012787007253800,6.042253662109375,1.345913052558899,0.07352399826049805,2.985250949859619
1717012787017138200,6.05213818359375,1.53433096408844,-0.21318000555038452,1.6233999729156494
1717012787027023000,6.062023193359375,1.7674640417099,-0.5553439855575562,0.5243210196495056
1717012787036907800,6.07190771484375,1.357970952987671,-0.9506750106811523,0.7074559926986694
1717012787046792400,6.08179248046875,0.6271770000457764,-1.451740026473999,1.3355649709701538
1717012787056677400,6.091677490234375,0.2049410045146942,-1.651792049407959,1.9156520366668701
1717012787066562000,6.10156201171875,-0.1192459985613823,-1.3470330238342285,2.702920913696289
1717012787076446700,6.11144677734375,-0.3737969994544983,-1.060027003288269,3.714337110519409
1717012787086331100,6.1213310546875,-0.229436993598938,-1.2176209688186646,4.7002692222595215
1717012787096216000,6.131216064453125,0.5804489850997925,-1.4764970541000366,5.411417007446289
1717012787106100700,6.141100830078125,1.8107589483261108,-1.7267980575561523,5.754733085632324
1717012787115985400,6.1509853515625,3.236607074737549,-1.8166379928588867,5.703786849975586
1717012787125870000,6.1608701171875,4.608486175537109,-1.6261110305786133,5.181430816650391
1717012787135754800,6.170754638671875,5.811588764190674,-1.582487940788269,4.185943126678467
1717012787145639400,6.180639404296875,6.682071208953857,-1.9243910312652588,3.149554967880249
1717012787155524000,6.190524169921875,7.165657043457031,-2.853912115097046,2.28924298286438
1717012787165409000,6.200408935546875,7.282925128936768,-3.9639298915863037,1.6913939714431763
1717012787175293700,6.210293701171875,7.282340049743652,-4.57914400100708,1.3131159543991089
1717012787185178400,6.220178466796875,7.471471786499023,-4.752114772796631,1.3360929489135742
1717012787195062800,6.230062744140625,7.605978012084961,-4.774493217468262,1.504073977470398
1717012787204947700,6.23994775390625,7.563982009887695,-4.797194004058838,1.0920599699020386
1717012787214832400,6.249832275390625,7.607186794281006,-4.149755001068115,-0.10795199871063232
1717012787224717000,6.259717041015625,6.976947784423828,-2.9574029445648193,-1.2895619869232178
1717012787234601700,6.269601806640625,5.602359771728516,-2.107522964477539,-2.402851104736328
1717012787244486400,6.279486328125,4.297887802124023,-1.3052170276641846,-3.4134790897369385
1717012787254371000,6.28937109375,2.8711090087890625,-0.3729740083217621,-4.449183940887451
1717012787264255700,6.299255859375,1.1816879510879517,0.5328199863433838,-5.337748050689697
1717012787274140700,6.309140625,-0.6602489948272705,1.3054560422897339,-5.726198196411133
1717012787284025300,6.319025390625,-2.5185999870300293,1.891564965248108,-5.671358108520508
1717012787293909800,6.32890966796875,-3.929279088973999,2.2740519046783447,-5.233885765075684
1717012787303794400,6.33879443359375,-4.618622779846191,2.3824410438537598,-4.325509071350098
1717012787313679400,6.348679443359375,-4.554897785186768,2.482753038406372,-3.5084071159362793
1717012787323564000,6.35856396484375,-3.9583170413970947,2.6374030113220215,-3.0763258934020996
1717012787333448700,6.36844873046875,-3.247454881668091,2.704322099685669,-2.9346609115600586
1717012787343333000,6.3783330078125,-2.938762903213501,2.4546570777893066,-2.9573280811309814
1717012787353218000,6.388218017578125,-2.90061092376709,2.1341259479522705,-3.1722629070281982
1717012787363102700,6.398102783203125,-3.0964879989624023,1.973701000213623,-3.4594099521636963
1717012787372987400,6.4079873046875,-3.4051899909973145,1.7837610244750977,-3.620327949523926
1717012787382872300,6.417872314453125,-3.691351890563965,1.461408019065857,-3.7138619422912598
1717012787392757000,6.427757080078125,-3.832282066345215,1.3147259950637817,-3.804689884185791
1717012787402641700,6.4376416015625,-3.9746251106262207,1.342980980873108,-3.8517510890960693
1717012787412526000,6.447526123046875,-3.978100061416626,1.3079849481582642,-3.5582010746002197
1717012787422411000,6.457410888671875,-3.8072800636291504,1.334388017654419,-3.0689609050750732
1717012787432295700,6.467295654296875,-3.5290238857269287,1.4923110008239746,-2.560767889022827
1717012787442180400,6.477180419921875,-3.146419048309326,1.5658479928970337,-2.027815103530884
1717012787452065000,6.48706494140625,-2.64593505859375,1.5150790214538574,-1.5550520420074463
1717012787461949700,6.49694970703125,-2.179948091506958,1.4136630296707153,-1.192041039466858
1717012787471834400,6.50683447265625,-1.885558009147644,1.2917300462722778,-0.7528330087661743
1717012787481719000,6.516718994140625,-1.7940460443496704,1.2613840103149414,-0.3854660093784332
1717012787491603700,6.526603759765625,-1.826436996459961,1.4035069942474365,-0.22997300326824188
1717012787501488400,6.53648828125,-1.8595499992370605,1.5828059911727905,-0.17837800085544586
1717012787511373000,6.546373046875,-1.9876389503479004,1.5398449897766113,-0.02910199947655201
1717012787521258000,6.556258056640625,-2.1149110794067383,1.4198750257492065,0.1431169956922531
1717012787531142400,6.566142333984375,-2.123128890991211,1.3487000465393066,0.1680939942598343
1717012787541027300,6.57602734375,-2.085702896118164,1.291759967803955,0.13847500085830688
1717012787550912000,6.585912109375,-2.1501619815826416,1.1518080234527588,0.1755799949169159
1717012787560796700,6.595796630859375,-2.1953299045562744,1.0982459783554077,0.21326400339603424
1717012787570681300,6.605681396484375,-2.2378640174865723,1.2825969457626343,0.11701100319623947
1717012787580566000,6.61556591796875,-2.382291078567505,1.5148769617080688,0.07840900123119354
1717012787590450700,6.62545068359375,-2.4210329055786133,1.6239019632339478,0.1547269970178604
1717012787600335400,6.63533544921875,-2.1224260330200195,1.444720983505249,0.3365809917449951
1717012787610220000,6.645219970703125,-1.5795409679412842,1.0981769561767578,0.41406500339508057
1717012787620104700,6.655104736328125,-0.8996319770812988,0.9361410140991211,0.33525198698043823
1717012787629989600,6.66498974609375,-0.048505999147892,1.0185129642486572,0.2290010005235672
1717012787639874300,6.674874267578125,0.648393988609314,0.8052099943161011,0.36400100588798523
1717012787649758700,6.6847587890625,0.8507149815559387,0.27056801319122314,1.0272010564804077
1717012787659643400,6.694643310546875,0.657371997833252,-0.24514499306678772,1.7969609498977661
1717012787669528300,6.7045283203125,0.5162979960441589,-0.4889160096645355,2.3343679904937744
1717012787679413000,6.7144130859375,0.6050379872322083,-0.45833200216293335,2.65629506111145
1717012787689297700,6.724297607421875,0.730430006980896,-0.29786598682403564,2.7786359786987305
1717012787699182000,6.73418212890625,0.9211440086364746,-0.007891999557614326,2.483707904815674
1717012787709067000,6.74406689453125,1.4017150402069092,0.21368500590324402,1.9717669486999512
1717012787718951700,6.75395166015625,1.9341720342636108,0.302947998046875,1.4430129528045654
1717012787728836400,6.76383642578125,2.311337947845459,0.3671579957008362,1.0128099918365479
1717012787738721000,6.773720947265625,2.309070110321045,0.45452699065208435,0.8022480010986328
1717012787748605700,6.783605712890625,1.9408559799194336,0.5052210092544556,0.9161990284919739
1717012787758490400,6.793490478515625,1.327085018157959,0.4121769964694977,1.4513590335845947
1717012787768375000,6.803375,0.5424680113792419,0.14014099538326263,2.1530869007110596
1717012787778259700,6.813259765625,-0.15802499651908875,-0.22148600220680237,2.745668888092041
1717012787788144400,6.823144287109375,-0.5944200158119202,-0.34918901324272156,3.254136085510254
1717012787798029300,6.833029296875,-0.868336021900177,-0.18575100600719452,3.5249080657958984
1717012787807913700,6.842913818359375,-1.0466690063476562,0.07139799743890762,3.400726079940796
1717012787817798400,6.85279833984375,-0.900534987449646,0.17391900718212128,2.757380962371826
1717012787827683000,6.86268310546875,-0.3716279864311218,0.075934998691082,1.7531050443649292
1717012787837568000,6.872568115234375,0.30189698934555054,-0.05765099823474884,0.8816840052604675
1717012787847452700,6.88245263671875,0.9007179737091064,0.011478000320494175,0.4061470031738281
1717012787857337000,6.892337158203125,1.2493740320205688,0.06838200241327286,0.568917989730835
1717012787867221800,6.9022216796875,1.2810989618301392,-0.09649299830198288,1.602334976196289
1717012787877106700,6.912106689453125,1.145678997039795,-0.30759501457214355,3.0290679931640625
1717012787886991400,6.921991455078125,0.7501429915428162,-0.537276029586792,3.8720550537109375
1717012787896876000,6.9318759765625,0.20331500470638275,-0.9834200143814087,3.990442991256714
1717012787906760400,6.941760498046875,-0.12134700268507004,-1.5603359937667847,3.361154079437256
1717012787916645400,6.951645263671875,-0.0010779999429360032,-2.0378689765930176,2.1329240798950195
1717012787926529800,6.96152978515625,0.7655370235443115,-2.410295009613037,0.9999380111694336
1717012787936414700,6.971414794921875,2.4348299503326416,-2.8954360485076904,0.4031499922275543
1717012787946299400,6.98129931640625,4.6110639572143555,-3.3107481002807617,0.5945199728012085
1717012787956184000,6.99118408203125,6.756051063537598,-3.4613990783691406,1.3836150169372559
1717012787966068700,7.00106884765625,8.28324031829834,-3.1827189922332764,2.3772919178009033
1717012787975953400,7.010953369140625,8.651391983032227,-2.611776113510132,2.85223388671875
1717012787985838000,7.020838134765625,7.758714199066162,-2.430219888687134,2.6377859115600586
1717012787995722800,7.03072265625,6.007771015167236,-2.8601770401000977,2.1854279041290283
1717012788005607400,7.040607421875,4.369417190551758,-3.3857409954071045,1.5083420276641846
1717012788015492400,7.050492431640625,3.336333990097046,-3.570992946624756,0.8450729846954346
1717012788025376800,7.060376708984375,3.0538671016693115,-3.3335940837860107,0.2408590018749237
1717012788035261400,7.070261474609375,3.523893117904663,-2.9180750846862793,-0.22491200268268585
1717012788045146000,7.08014599609375,3.9647159576416016,-2.426460027694702,-0.7703279852867126
1717012788055030800,7.09003076171875,3.702971935272217,-1.651568055152893,-1.4706629514694214
1717012788064915500,7.09991552734375,2.9695770740509033,-1.0476549863815308,-2.165329933166504
1717012788074800400,7.10980029296875,2.0748629570007324,-0.44692400097846985,-2.7090649604797363
1717012788084684800,7.119684814453125,0.8494910001754761,0.188060000538826,-3.1024510860443115
1717012788094569500,7.129569580078125,-0.6036049723625183,0.518447995185852,-3.24436092376709
1717012788104454100,7.1394541015625,-1.9948840141296387,0.689158022403717,-3.2354888916015625
1717012788114338800,7.1493388671875,-3.1711080074310303,0.9537259936332703,-3.3243908882141113
1717012788124223700,7.1592236328125,-3.9984850883483887,1.3373810052871704,-3.469912052154541
1717012788134108400,7.1691083984375,-4.419589042663574,1.8555049896240234,-3.5767300128936768
1717012788143992800,7.178992919921875,-4.506869792938232,2.3044040203094482,-3.690984010696411
1717012788153877500,7.18887744140625,-4.34549617767334,2.52032208442688,-3.719187021255493
1717012788163762200,7.19876220703125,-3.998795986175537,2.5234580039978027,-3.6841490268707275
1717012788173647000,7.208647216796875,-3.5214359760284424,2.603566884994507,-3.6945199966430664
1717012788183531800,7.21853173828125,-3.035550117492676,2.4660539627075195,-3.701215982437134
1717012788193416400,7.22841650390625,-2.4724390506744385,2.0376429557800293,-3.5929720401763916
1717012788203301000,7.238301025390625,-2.0027520656585693,1.6837140321731567,-3.5031778812408447
1717012788213185800,7.248185791015625,-1.7686020135879517,1.5709710121154785,-3.352142095565796
1717012788223070500,7.258070556640625,-1.7252819538116455,1.4775769710540771,-3.0265140533447266
1717012788232955100,7.267955078125,-1.8458260297775269,1.3444609642028809,-2.718010902404785
1717012788242839600,7.277839599609375,-2.0534610748291016,1.2307690382003784,-2.4600090980529785
1717012788252724500,7.287724365234375,-2.3059680461883545,1.0502150058746338,-2.2800068855285645
1717012788262609000,7.29760888671875,-2.499974012374878,0.7865719795227051,-2.038404941558838
1717012788272493800,7.307493896484375,-2.6591789722442627,0.5604580044746399,-1.7899240255355835
1717012788282378500,7.31737841796875,-2.7305428981781006,0.4499660134315491,-1.533539056777954
1717012788292263000,7.327262939453125,-2.6756350994110107,0.5015730261802673,-1.2748310565948486
1717012788302147800,7.33714794921875,-2.366107940673828,0.4972580075263977,-0.9846649765968323
1717012788312032300,7.3470322265625,-1.936885952949524,0.5050060153007507,-0.7309319972991943
1717012788321917000,7.3569169921875,-1.707108974456787,0.5576050281524658,-0.590345025062561
1717012788331801900,7.3668017578125,-1.6544870138168335,0.5260829925537109,-0.5546759963035583
1717012788341686500,7.3766865234375,-1.6843899488449097,0.44006699323654175,-0.43974098563194275
1717012788351571200,7.3865712890625,-1.8971120119094849,0.3368529975414276,-0.24619300663471222
1717012788361455600,7.39645556640625,-2.2728888988494873,0.3406819999217987,-0.13375400006771088
1717012788371340300,7.40634033203125,-2.5055110454559326,0.34934601187705994,-0.09740299731492996
1717012788381225200,7.41622509765625,-2.4084091186523438,0.38827699422836304,-0.1435219943523407
1717012788391109600,7.426109619140625,-2.200326919555664,0.5330209732055664,-0.2388180047273636
1717012788400994600,7.43599462890625,-1.9650620222091675,0.7600169777870178,-0.3926540017127991
1717012788410879000,7.44587890625,-1.5648490190505981,0.972012996673584,-0.6589229702949524
1717012788420763600,7.455763671875,-1.035079002380371,1.2024110555648804,-0.9047390222549438
1717012788430648300,7.4656484375,-0.6192629933357239,1.318727970123291,-1.0317909717559814
1717012788440533200,7.475533203125,-0.5034109950065613,1.1981829404830933,-0.8254320025444031
1717012788450417700,7.485417724609375,-0.5995280146598816,1.004945993423462,-0.21794599294662476
1717012788460302600,7.495302490234375,-0.7388229966163635,0.867156982421875,0.5080429911613464
1717012788470187000,7.50518701171875,-0.9566580057144165,0.8217250108718872,1.0136339664459229
1717012788480071700,7.51507177734375,-1.0621260404586792,0.8477799892425537,1.4285069704055786
1717012788489956600,7.52495654296875,-0.8689010143280029,0.9326239824295044,1.5588059425354004
1717012788499841000,7.534841064453125,-0.4559209942817688,1.0028990507125854,1.4750440120697021
1717012788509725700,7.5447255859375,0.06646300107240677,1.0343190431594849,1.404034972190857
1717012788519610400,7.5546103515625,0.6835700273513794,1.0258549451828003,1.5696280002593994
1717012788529495000,7.5644951171875,1.2588560581207275,0.8438839912414551,1.834902048110962
1717012788539379700,7.574379638671875,1.7870850563049316,0.47830700874328613,2.1743218898773193
1717012788549264400,7.584264404296875,1.9488680362701416,0.0706460028886795,2.4890570640563965
1717012788559149000,7.594149169921875,1.7502939701080322,-0.2634829878807068,2.7248458862304688
1717012788569033700,7.60403369140625,1.0786349773406982,-0.27078598737716675,3.0822761058807373
1717012788578918400,7.61391845703125,0.07170800119638443,-0.1094290018081665,3.3642210960388184
1717012788588803000,7.623802978515625,-0.77463299036026,-0.08514299988746643,3.2745769023895264
1717012788598687700,7.633687744140625,-1.3357059955596924,-0.08891399949789047,2.7996621131896973
1717012788608572700,7.64357275390625,-1.710165023803711,-0.13273100554943085,2.134129047393799
1717012788618457000,7.65345703125,-2.0849320888519287,-0.004585000220686197,2.138503074645996
1717012788628341800,7.663341796875,-2.3191449642181396,0.08433099836111069,2.0788021087646484
1717012788638226400,7.673226318359375,-2.272916078567505,0.0058650001883506775,1.6646419763565063
1717012788648111000,7.683111083984375,-1.8111330270767212,-0.20810699462890625,1.2781139612197876
1717012788657995800,7.692995849609375,-1.0825059413909912,-0.35368600487709045,1.5568909645080566
1717012788667880700,7.702880615234375,-0.4308049976825714,-0.3581480085849762,3.0119121074676514
1717012788677765000,7.71276513671875,-0.005444000009447336,-0.45691901445388794,5.05033016204834
1717012788687649800,7.72264990234375,0.633243978023529,-0.8423349857330322,6.6282639503479
1717012788697534500,7.732534423828125,1.3225950002670288,-1.0018680095672607,7.144211769104004
1717012788707419100,7.742419189453125,2.4220759868621826,-1.2574939727783203,6.535368919372559
1717012788717303800,7.7523037109375,4.401660919189453,-2.05399489402771,5.067494869232178
1717012788727188500,7.7621884765625,6.488529205322266,-2.8423960208892822,3.890795946121216
1717012788737073200,7.7720732421875,8.138023376464844,-3.552316904067993,3.396636962890625
1717012788746957800,7.781957763671875,9.455218315124512,-4.263453006744385,3.2749099731445312
1717012788756842500,7.791842529296875,9.963374137878418,-4.866762161254883,2.966326951980591
1717012788766727200,7.80172705078125,9.694700241088867,-5.161409854888916,2.547461986541748
1717012788776611800,7.81161181640625,9.200559616088867,-5.386727809906006,2.463568925857544
1717012788786496300,7.821496337890625,9.038846969604492,-5.534982204437256,2.6028549671173096
1717012788796381000,7.831380859375,9.147077560424805,-4.983985900878906,2.183885097503662
1717012788806265900,7.841265869140625,9.082462310791016,-3.755189895629883,0.7047079801559448
1717012788816150500,7.851150634765625,8.201169967651367,-2.4081509113311768,-1.2946330308914185
1717012788826035200,7.86103515625,6.173736095428467,-1.2921199798583984,-3.2413060665130615
1717012788835919600,7.870919677734375,3.1533889770507812,-0.4168959856033325,-4.748244762420654
1717012788845804300,7.88080419921875,0.1179099977016449,0.06888099759817123,-5.570596218109131
1717012788855689200,7.890689208984375,-2.467271089553833,0.36550599336624146,-5.968478202819824
1717012788865574000,7.900573974609375,-4.031416893005371,0.5452049970626831,-5.969982147216797
1717012788875458600,7.91045849609375,-4.5955328941345215,0.8169639706611633,-5.742384910583496
1717012788885343000,7.920343017578125,-4.749226093292236,1.1255710124969482,-5.641908168792725
1717012788895227600,7.9302275390625,-4.4913811683654785,1.3348569869995117,-5.486326217651367
1717012788905112300,7.9401123046875,-3.884305000305176,1.6446850299835205,-5.2882609367370605
1717012788914997000,7.9499970703125,-3.3354439735412598,1.9941480159759521,-5.077009201049805
1717012788924881700,7.959881591796875,-2.8867549896240234,2.3217179775238037,-4.814406871795654
1717012788934766300,7.969766357421875,-2.6846039295196533,2.474174976348877,-4.469126224517822
1717012788944651000,7.979651123046875,-2.7516839504241943,2.362539052963257,-4.12890100479126
1717012788954535700,7.98953564453125,-2.9365479946136475,2.252432107925415,-3.8703200817108154
1717012788964420400,7.99942041015625,-3.0644381046295166,2.200345993041992,-3.5842559337615967
1717012788974305000,8.009304931640624,-3.11395001411438,1.961076021194458,-3.193804979324341
1717012788984189700,8.019189697265626,-3.1527609825134277,1.58086097240448,-2.8806440830230713
1717012788994074400,8.029074462890625,-3.077409029006958,1.2934880256652832,-2.6349151134490967
1717012789003959000,8.038958984375,-2.9387269020080566,1.0651899576187134,-2.443131923675537
1717012789013843700,8.04884375,-2.5981810092926025,0.8769519925117493,-2.384105920791626
1717012789023728400,8.058728271484375,-2.0121450424194336,0.8623610138893127,-2.3688840866088867
1717012789033613000,8.068613037109374,-1.586514949798584,0.9890890121459961,-2.249506950378418
1717012789043497500,8.07849755859375,-1.443613052368164,0.8808709979057312,-1.8876060247421265
1717012789053382100,8.088382080078125,-1.5836900472640991,0.5806970000267029,-1.4868849515914917
1717012789063266800,8.098266845703124,-1.9069520235061646,0.37255701422691345,-1.0271070003509521
1717012789073151700,8.10815185546875,-2.2439610958099365,0.2980459928512573,-0.4976859986782074
1717012789083036400,8.118036376953125,-2.619168996810913,0.31843599677085876,-0.09894900023937225
1717012789092920800,8.1279208984375,-2.909735918045044,0.36994901299476624,0.016039999201893806
1717012789102805500,8.137805419921875,-3.094188928604126,0.47435900568962097,-0.038366999477148056
1717012789112690200,8.147690185546875,-3.152151107788086,0.7602869868278503,-0.15949399769306183
1717012789122574800,8.157574951171876,-2.940920114517212,1.133829951286316,-0.20599499344825745
1717012789132459500,8.16745947265625,-2.5543360710144043,1.4262640476226807,-0.14959600567817688
1717012789142344200,8.17734423828125,-2.182668924331665,1.5850110054016113,-0.09087599813938141
1717012789152228900,8.187228759765626,-1.855734944343567,1.5440089702606201,-0.011101000010967255
1717012789162113300,8.19711328125,-1.8397879600524902,1.3832069635391235,0.23431800305843353
1717012789171998200,8.206998291015625,-2.2062299251556396,1.3401650190353394,0.5114549994468689
1717012789181883000,8.2168828125,-2.5409839153289795,1.3745319843292236,0.5659639835357666
1717012789191767600,8.226767578125,-2.6015870571136475,1.3660260438919067,0.40877100825309753
1717012789201652200,8.23665234375,-2.380470037460327,1.646420955657959,0.258215993642807
1717012789211536600,8.24653662109375,-1.9235759973526,2.0483360290527344,0.2713730037212372
1717012789221421300,8.25642138671875,-1.4372600317001343,2.1850690841674805,0.5466979742050171
1717012789231306000,8.266305908203124,-0.9922080039978027,1.9184550046920776,1.046159029006958
1717012789241191000,8.27619091796875,-0.49296700954437256,1.5387639999389648,1.6281269788742065
1717012789251075300,8.286075439453125,-0.21437300741672516,1.2598110437393188,2.162501096725464
1717012789260960000,8.2959599609375,-0.15629799664020538,1.0206489562988281,2.8700010776519775
1717012789270844700,8.3058447265625,-0.16743899881839752,0.8301190137863159,3.727200984954834
1717012789280729300,8.315729248046875,0.05644800141453743,0.5856950283050537,4.1657609939575195
1717012789290614000,8.325614013671874,0.5483580231666565,0.3493559956550598,3.771807909011841
1717012789300498700,8.335498779296875,1.029086947441101,0.346684992313385,3.186245918273926
1717012789310383000,8.345383056640625,1.3072689771652222,0.34294798970222473,2.205796957015991
1717012789320267800,8.355267822265626,1.5018149614334106,0.2527579963207245,1.1974380016326904
1717012789330152700,8.365152587890625,1.8206520080566406,0.03180599957704544,0.4811500012874603
1717012789340037400,8.375037353515625,2.452522039413452,-0.08575399965047836,-0.18227900564670563
1717012789349921800,8.384921875,1.9140169620513916,-0.1926030069589615,-0.22262300550937653
1717012789359806500,8.394806396484375,0.9488139748573303,-0.42048200964927673,0.01950100064277649
1717012789369691100,8.404691162109375,0.3398509919643402,-0.4035860002040863,0.06120099872350693
1717012789379575800,8.414575927734376,-0.11771800369024277,-0.22366900742053986,0.4153600037097931
1717012789389460500,8.42446044921875,-0.45977500081062317,-0.24933500587940216,1.0962879657745361
1717012789399345200,8.43434521484375,-0.5190200209617615,-0.5434679985046387,1.9466309547424316
1717012789409229800,8.444229736328126,-0.40801599621772766,-0.7379739880561829,2.3597049713134766
1717012789419114500,8.454114501953125,-0.06401199847459793,-0.7431790232658386,2.17496395111084
1717012789428999200,8.463999267578124,0.86878901720047,-0.8377429842948914,1.9199700355529785
1717012789438883600,8.473883544921875,2.4294309616088867,-0.7837939858436584,1.9079760313034058
1717012789448768300,8.483768310546875,3.4835450649261475,-0.6134359836578369,2.442380905151367
1717012789458653000,8.49365283203125,4.094036102294922,-0.6651480197906494,2.971503973007202
1717012789468537600,8.50353759765625,4.353629112243652,-0.8425189852714539,3.5844030380249023
1717012789478422300,8.51342236328125,4.002102851867676,-1.3084150552749634,4.225922107696533
1717012789488307000,8.523306884765624,3.2728819847106934,-2.3419320583343506,4.855937957763672
1717012789498191600,8.533191650390625,2.7503058910369873,-3.5935449600219727,5.279150009155273
1717012789508076000,8.543075927734375,3.429845094680786,-4.176436901092529,5.392119884490967
1717012789517961000,8.5529609375,5.4494757652282715,-4.224349021911621,5.380895137786865
1717012789527845600,8.562845703125,7.86198091506958,-4.54987907409668,5.320716857910156
1717012789537730000,8.57272998046875,9.887984275817871,-4.7071027755737305,4.782973766326904
1717012789547614700,8.58261474609375,10.401588439941406,-4.0208821296691895,3.1655778884887695
1717012789557499400,8.59249951171875,8.91887092590332,-2.902306079864502,0.9020630121231079
1717012789567384000,8.602384033203125,6.427897930145264,-2.0266449451446533,-0.9607499837875366
1717012789577268700,8.612268798828126,4.035118103027344,-1.6789159774780273,-1.9005999565124512
1717012789587153400,8.6221533203125,2.4848930835723877,-1.415932059288025,-1.9652819633483887
1717012789597037800,8.632037841796874,1.8743150234222412,-0.9239460229873657,-1.6586259603500366
1717012789606922800,8.6419228515625,1.7122529745101929,-0.2103559970855713,-1.770900011062622
1717012789616807400,8.651807373046875,1.3850040435791016,0.40291398763656616,-2.3767199516296387
1717012789626691800,8.66169189453125,0.3920019865036011,0.7055310010910034,-3.135776996612549
1717012789636576500,8.671576416015625,-1.0928000211715698,0.9092239737510681,-3.983820915222168
1717012789646461200,8.681461181640625,-2.6046390533447266,0.9993799924850464,-4.743056774139404
1717012789656345900,8.691345947265624,-3.645313024520874,1.1691030263900757,-5.24244499206543
1717012789666230500,8.70123046875,-4.211450099945068,1.3552830219268799,-5.345955848693848
1717012789676115200,8.711115234375,-4.298759937286377,1.5322259664535522,-5.113564968109131
1717012789685999600,8.72099951171875,-4.105408191680908,1.6705800294876099,-4.6964521408081055
1717012789695884300,8.73088427734375,-3.826725959777832,1.762063980102539,-4.265161037445068
1717012789705769000,8.74076904296875,-3.3565800189971924,1.7312510013580322,-3.935328960418701
1717012789715654000,8.75065380859375,-2.874864101409912,1.557000994682312,-3.6458630561828613
1717012789725538300,8.760538330078125,-2.537492036819458,1.2824009656906128,-3.3366899490356445
1717012789735423000,8.770423095703125,-2.3995940685272217,0.9819210171699524,-3.1005520820617676
1717012789745307600,8.7803076171875,-2.4620749950408936,0.7831360101699829,-2.9476420879364014
1717012789755192300,8.7901923828125,-2.6072590351104736,0.5481089949607849,-2.797313928604126
1717012789765076700,8.80007666015625,-2.7570080757141113,0.29528701305389404,-2.643450975418091
1717012789774961400,8.80996142578125,-2.9624059200286865,0.15383000671863556,-2.58276104927063
1717012789784846000,8.81984619140625,-3.021125078201294,0.07506400346755981,-2.5518081188201904
1717012789794730800,8.829730712890624,-2.9344990253448486,0.12725099921226501,-2.428647041320801
1717012789804615400,8.839615478515626,-2.778799057006836,0.21060100197792053,-2.268517017364502
1717012789814500000,8.8495,-2.543039083480835,0.4140799939632416,-2.1348140239715576
1717012789824384800,8.859384765625,-2.279231071472168,0.6088640093803406,-1.9854509830474854
1717012789834269400,8.86926953125,-2.1241838932037354,0.7382910251617432,-1.7819609642028809
1717012789844154000,8.879154052734375,-1.9985469579696655,0.9490330219268799,-1.4119679927825928
1717012789854038800,8.889038818359374,-1.8724379539489746,1.1344259977340698,-0.7983750104904175
1717012789863923200,8.898923095703125,-1.8659499883651733,1.0899410247802734,-0.07949899882078171
1717012789873808000,8.908807861328125,-1.8663599491119385,0.9351530075073242,0.5267999768257141
1717012789883692500,8.918692626953124,-1.9474879503250122,0.785722017288208,0.8822399973869324
1717012789893577200,8.9285771484375,-2.0939910411834717,0.6061769723892212,1.016191005706787
1717012789903462000,8.9384619140625,-2.328792095184326,0.44814199209213257,0.8761529922485352
1717012789913346600,8.9483466796875,-2.516633987426758,0.49851301312446594,0.49212199449539185
1717012789923231200,8.958231201171875,-2.4749069213867188,0.6844099760055542,0.14089800417423248
1717012789933115600,8.96811572265625,-2.1791250705718994,0.6147279739379883,-0.2064809948205948
1717012789943000600,8.97800048828125,-1.7704999446868896,0.47418200969696045,-0.49638500809669495
1717012789952885200,8.98788525390625,-1.4428000450134277,0.5193459987640381,-0.7019079923629761
1717012789962770000,8.99777001953125,-1.2166399955749512,0.6418769955635071,-0.7359259724617004
1717012789972654300,9.007654296875,-1.1613119840621948,0.8351010084152222,-0.6919410228729248
1717012789982539000,9.0175390625,-1.2794500589370728,1.0744810104370117,-0.607151985168457
1717012789992423700,9.027423583984374,-1.4147590398788452,1.3131849765777588,-0.2833220064640045
1717012790002308400,9.037308349609376,-1.467007040977478,1.452947974205017,0.3485420048236847
1717012790012193000,9.047193115234375,-1.0472060441970825,1.4079580307006836,1.1668330430984497
1717012790022077700,9.05707763671875,-0.483364999294281,1.1911660432815552,2.144666910171509
1717012790031962000,9.066962158203125,-0.2946920096874237,0.9649329781532288,3.053333044052124
1717012790041846800,9.0768466796875,-0.2773529887199402,0.8407459855079651,3.481066942214966
1717012790051731500,9.0867314453125,-0.3794820010662079,0.9013969898223877,3.562453031539917
1717012790061616000,9.0966162109375,-0.48758599162101746,1.0411169528961182,3.3923630714416504
1717012790071500800,9.106500732421875,-0.5356690287590027,1.0552940368652344,2.926690101623535
1717012790081385200,9.11638525390625,-0.5837349891662598,0.9514350295066833,2.310152053833008
1717012790091270100,9.126270263671875,-0.539788007736206,0.7859479784965515,1.6993210315704346
1717012790101154600,9.136154541015625,-0.5582299828529358,0.6119580268859863,1.1386569738388062
1717012790111039500,9.14603955078125,-0.4521839916706085,0.4495660066604614,0.7557250261306763
1717012790120924000,9.155923828125,-0.31934699416160583,0.3188529908657074,0.762179970741272
1717012790130808600,9.16580859375,-0.31147798895835876,0.3334819972515106,1.34334397315979
1717012790140693200,9.175693359375,-0.3891820013523102,0.3395859897136688,2.0034749507904053
1717012790150578000,9.185577880859375,-0.21694600582122803,0.3292689919471741,2.3827810287475586
1717012790160462600,9.195462646484375,0.08884300291538239,0.33061501383781433,2.529423952102661
1717012790170347300,9.20534716796875,0.5078740119934082,0.12449199706315994,2.8755390644073486
1717012790180231700,9.215231689453125,0.9870989918708801,-0.026806000620126724,3.4924309253692627
1717012790190116400,9.225116455078124,1.2888790369033813,0.15695500373840332,3.932344913482666
1717012790200001000,9.2350009765625,1.4183030128479004,0.29596400260925293,4.273876190185547
1717012790209885700,9.2448857421875,1.3546429872512817,0.09117099642753601,4.407900810241699
1717012790219770000,9.25477001953125,1.2141139507293701,-0.3158630132675171,4.112720012664795
1717012790229654800,9.26465478515625,1.1376910209655762,-0.6854900121688843,3.6213760375976562
1717012790239539500,9.27453955078125,0.9197530150413513,-1.1115920543670654,3.194700002670288
1717012790249424400,9.28442431640625,0.8358020186424255,-1.8524730205535889,2.9997599124908447
1717012790259309000,9.29430908203125,1.7182409763336182,-2.5683789253234863,3.4614078998565674
1717012790269193500,9.304193359375,3.4609930515289307,-3.1147029399871826,4.252326965332031
1717012790279078100,9.314078125,5.439994812011719,-3.742961883544922,4.574663162231445
1717012790288962800,9.323962890625,7.153595924377441,-4.3487701416015625,4.619729995727539
1717012790298847500,9.333847412109375,8.246075630187988,-4.53661584854126,3.7453839778900146
1717012790308732000,9.34373193359375,8.35206127166748,-3.880492925643921,1.9211080074310303
1717012790318616600,9.353616455078125,7.308050155639648,-3.1003940105438232,-0.06311400234699249
1717012790328501200,9.363501220703125,5.637639045715332,-2.681114912033081,-1.5520910024642944
1717012790338386000,9.373385986328126,4.114912033081055,-2.549691915512085,-2.207271099090576
1717012790348270600,9.3832705078125,3.7943289279937744,-2.5245540142059326,-1.8946189880371094
1717012790358155000,9.393155029296874,4.565863132476807,-2.3780429363250732,-0.9844930171966553
1717012790368040000,9.4030400390625,5.619091033935547,-1.9112329483032227,-0.19559399783611298
1717012790377924400,9.41292431640625,5.9688720703125,-1.2633869647979736,-0.19487500190734863
1717012790387809000,9.42280908203125,5.299898147583008,-0.6347100138664246,-1.0910999774932861
1717012790397693700,9.432693603515625,3.8239190578460693,0.07863099873065948,-2.3616809844970703
1717012790407578400,9.442578369140625,1.9463340044021606,0.5989050269126892,-3.5925440788269043
1717012790417462800,9.452462890625,0.16346700489521027,0.9415240287780762,-4.3476362228393555
1717012790427347500,9.462347412109375,-1.438025951385498,1.030819058418274,-4.549308776855469
1717012790437232400,9.472232421875,-2.6544198989868164,0.9182549715042114,-4.40744686126709
1717012790447117000,9.482116943359374,-3.294735908508301,0.8666039705276489,-4.164358139038086
1717012790457001500,9.49200146484375,-3.51338791847229,0.8716830015182495,-3.927485942840576
1717012790466886100,9.50188623046875,-3.398710012435913,0.8893470168113708,-3.756387948989868
1717012790476770800,9.511770751953126,-3.182168960571289,0.9242770075798035,-3.6395111083984375
1717012790486655500,9.521655517578125,-3.0081350803375244,0.9746209979057312,-3.594007968902588
1717012790496540200,9.5315400390625,-2.8257079124450684,0.9020969867706299,-3.6624069213867188
1717012790506424600,9.541424560546876,-2.7685658931732178,0.6856769919395447,-3.803525924682617
1717012790516309200,9.551309326171875,-2.7740530967712402,0.48134100437164307,-3.939620018005371
1717012790526194000,9.56119384765625,-2.905642032623291,0.30107301473617554,-3.9388959407806396
1717012790536078600,9.57107861328125,-3.000514030456543,0.12965799868106842,-3.7591168880462646
1717012790545963000,9.580962890625,-3.0212109088897705,0.20132699608802795,-3.415292978286743
1717012790555847700,9.59084765625,-3.060969114303589,0.38106200098991394,-2.969834089279175
1717012790565732400,9.600732421875,-2.952775001525879,0.5120490193367004,-2.4158670902252197
1717012790575617000,9.610616943359375,-2.5518200397491455,0.7408390045166016,-1.8294939994812012
1717012790585501700,9.620501708984374,-1.989456057548523,0.9742720127105713,-1.27559494972229
1717012790595386400,9.630386474609375,-1.6011650562286377,0.9554169774055481,-0.9340760111808777
1717012790605270800,9.640270751953125,-1.2161320447921753,0.9467340111732483,-0.9584609866142273
1717012790615155500,9.650155517578124,-1.1105060577392578,0.9989870190620422,-1.3275680541992188
1717012790625040100,9.6600400390625,-1.352403998374939,1.2415900230407715,-2.0020549297332764
1717012790634924500,9.669924560546875,-1.6043230295181274,1.474071979522705,-2.4472439289093018
1717012790644809200,9.679809326171876,-1.7306580543518066,1.4512569904327393,-2.275394916534424
1717012790654694000,9.68969384765625,-1.957326054573059,1.4290050268173218,-1.600316047668457
1717012790664578600,9.69957861328125,-2.316261053085327,1.3104039430618286,-0.6498519778251648
1717012790674463200,9.709463134765626,-2.7194089889526367,1.1667230129241943,0.1049169972538948
1717012790684347600,9.71934765625,-3.0699269771575928,1.1861779689788818,0.3695339858531952
1717012790694232600,9.729232666015625,-3.2495410442352295,1.411342978477478,0.25562700629234314
1717012790704117000,9.739116943359376,-2.964432954788208,1.6786739826202393,-0.04269799962639809
1717012790714001700,9.749001708984375,-2.297945976257324,1.923738956451416,-0.3869580030441284
1717012790723886300,9.75888623046875,-1.602357029914856,1.9477909803390503,-0.6471660137176514
1717012790733770800,9.768770751953125,-1.0082850456237793,1.7918330430984497,-0.7241330146789551
1717012790743655700,9.77865576171875,-0.5138279795646667,1.558266043663025,-0.5161060094833374
1717012790753540400,9.788540283203124,-0.3894619941711426,1.3442130088806152,-0.13688500225543976
1717012790763425000,9.798425048828125,-0.6971700191497803,1.0425699949264526,0.31369099020957947
1717012790773309400,9.808309326171875,-1.0857360363006592,0.8476560115814209,0.616553008556366
1717012790783194000,9.818194091796874,-1.2629890441894531,0.7853249907493591,0.8340420126914978
1717012790793078800,9.828078857421875,-1.1847909688949585,0.6362599730491638,1.3624340295791626
1717012790802963500,9.83796337890625,-0.9518319964408875,0.2850080132484436,2.0131471157073975
1717012790812848000,9.84784814453125,-0.5582659840583801,-0.009592999704182148,2.35851788520813
1717012790822732500,9.857732666015625,-0.18581299483776093,-0.08847399801015854,2.273214101791382
1717012790832617200,9.8676171875,0.041749000549316406,0.0044200001284480095,1.9625710248947144
1717012790842502000,9.877501953125,0.3421989977359772,0.07793600112199783,1.4972569942474365
1717012790852386600,9.887386474609375,0.8041589856147766,-0.06965100020170212,0.9682049751281738
1717012790862271000,9.89727099609375,1.0921269655227661,-0.18211999535560608,0.5481640100479126
1717012790872155600,9.90715576171875,1.0689020156860352,-0.2016959935426712,0.5841310024261475
1717012790882040300,9.917040283203125,0.8127210140228271,-0.20135700702667236,1.1649049520492554
1717012790891925000,9.926925048828124,0.39737701416015625,-0.16508500277996063,1.9391239881515503
1717012790901809700,9.9368095703125,-0.1052979975938797,-0.0664680004119873,2.7928988933563232
1717012790911694000,9.946694091796875,-0.5018380284309387,0.09802500158548355,3.39591908454895
1717012790921578800,9.956578857421874,-0.6870700120925903,0.2464199960231781,3.3967349529266357
1717012790931463400,9.96646337890625,-0.8728560209274292,0.2091359943151474,2.8269879817962646
1717012790941348000,9.97634814453125,-0.9758849740028381,0.06570799648761749,1.6975899934768677
1717012790951232800,9.986232666015624,-0.6775079965591431,0.08696699887514114,0.4732719957828522
1717012790961117200,9.9961171875,0.014793000183999538,0.32477301359176636,-0.10458199679851532
1717012790971001900,10.006001953125,0.7478340268135071,0.4150179922580719,0.2731339931488037
1717012790980886500,10.015886474609376,1.2326669692993164,0.2800149917602539,1.119307041168213
1717012790990771200,10.025771240234375,1.3541339635849,0.03041199967265129,2.1674458980560303
1717012791000656000,10.03565576171875,1.0353070497512817,-0.3012700080871582,3.324357032775879
1717012791010540300,10.045540283203126,0.4202449917793274,-0.6754159927368164,4.226686000823975
1717012791020425000,10.055425048828125,-0.05500299856066704,-1.172333002090454,4.518949031829834
1717012791030309600,10.0653095703125,-0.212801992893219,-1.503466010093689,3.8647589683532715
1717012791040194300,10.0751943359375,0.1593569964170456,-1.3899730443954468,2.375006914138794
1717012791050078700,10.08507861328125,1.2002860307693481,-1.047178030014038,0.9360060095787048
1717012791059963400,10.09496337890625,2.686629056930542,-0.8129420280456543,0.21040500700473785
1717012791069848000,10.10484814453125,3.846903085708618,-0.7383540272712708,0.6171240210533142
1717012791079732500,10.114732421875,4.307922840118408,-0.8090829849243164,1.9040989875793457
1717012791089617400,10.124617431640624,4.042337894439697,-1.0168659687042236,3.32167911529541
1717012791099501800,10.134501708984375,3.1898701190948486,-1.101493000984192,4.330144882202148
1717012791109386500,10.144386474609375,2.047895908355713,-1.2291940450668335,4.627315044403076
1717012791119271200,10.154271240234374,1.4175169467926025,-1.78815495967865,4.468252182006836
1717012791129155800,10.16415576171875,2.245213031768799,-2.5961239337921143,3.7722010612487793
1717012791139040300,10.174040283203125,4.244969844818115,-3.3721001148223877,2.726562023162842
1717012791148925000,10.183925048828126,6.657576084136963,-4.138479232788086,1.9852479696273804
1717012791158809600,10.1938095703125,8.498861312866211,-4.341183185577393,1.2089990377426147
1717012791168694300,10.2036943359375,8.915888786315918,-3.5457470417022705,0.060798000544309616
1717012791178579000,10.213578857421876,7.7823100090026855,-2.3637969493865967,-0.9705619812011719
1717012791188463400,10.22346337890625,5.614648818969727,-1.4710370302200317,-1.5940489768981934
1717012791198348000,10.23334814453125,3.7349181175231934,-0.9720289707183838,-1.6208380460739136
1717012791208232700,10.243232666015626,2.5527360439300537,-0.505623996257782,-1.3382699489593506
1717012791218117400,10.253117431640625,1.9181879758834839,-0.18609899282455444,-1.2378170490264893
1717012791228001800,10.263001708984374,1.526550054550171,0.06791999936103821,-1.703052043914795
1717012791237886500,10.272886474609376,1.342041015625,0.3439350128173828,-2.5496408939361572
1717012791247771100,10.282771240234375,0.9992330074310303,0.6559489965438843,-3.502113103866577
1717012791257655800,10.29265576171875,0.34898701310157776,0.8295590281486511,-4.3040900230407715
1717012791267540200,10.302540283203125,-0.5488089919090271,0.9356470108032227,-4.707272052764893
1717012791277425000,10.3124248046875,-1.5958479642868042,1.0861170291900635,-4.801018238067627
1717012791287309600,10.3223095703125,-2.5222771167755127,1.1080939769744873,-4.7160139083862305
1717012791297194200,10.3321943359375,-3.1026229858398438,0.8920750021934509,-4.4968109130859375
1717012791307079000,10.342078857421875,-3.422898054122925,0.656059980392456,-4.134247779846191
1717012791316963300,10.35196337890625,-3.37031888961792,0.5920479893684387,-3.6521990299224854
1717012791326848000,10.361847900390625,-3.263453960418701,0.5104380249977112,-3.212959051132202
1717012791336732700,10.371732666015625,-3.2331631183624268,0.2891499996185303,-2.8559670448303223
1717012791346617300,10.381617431640626,-3.2537310123443604,0.07611999660730362,-2.669574022293091
1717012791356502000,10.391501953125,-3.275784969329834,-0.03270300105214119,-2.690058946609497
1717012791366386700,10.40138671875,-3.2446279525756836,-0.07256200164556503,-2.6672470569610596
1717012791376271000,10.41127099609375,-2.9597020149230957,-0.1708489954471588,-2.585797071456909
1717012791386155800,10.42115576171875,-2.6533620357513428,-0.1422789990901947,-2.428637981414795
1717012791396040400,10.43104052734375,-2.46028995513916,0.11417599767446518,-2.276510000228882
1717012791405925000,10.440925048828126,-2.2826309204101562,0.17374099791049957,-2.1548080444335938
1717012791415809800,10.450809814453125,-2.1877059936523438,0.07179299741983414,-2.0342459678649902
1717012791425694200,10.460694091796874,-2.3117640018463135,0.02143399976193905,-2.0249969959259033
1717012791435579000,10.470578857421875,-2.3862109184265137,0.21634699404239655,-2.0719969272613525
1717012791445463600,10.480463623046875,-2.4201691150665283,0.6114770174026489,-2.059998035430908
1717012791455348000,10.490347900390624,-2.4553349018096924,0.9723820090293884,-1.8951979875564575
1717012791465233000,10.50023291015625,-2.4874680042266846,1.3163059949874878,-1.740159034729004
1717012791475117300,10.510117431640625,-2.561173915863037,1.6138440370559692,-1.5113270282745361
1717012791485002000,10.520001953125,-2.6385390758514404,1.7838749885559082,-1.136260986328125
1717012791494886700,10.52988671875,-2.8332319259643555,1.8047000169754028,-0.7306089997291565
1717012791504771300,10.539771240234375,-2.991384983062744,1.8861600160598755,-0.43088701367378235
1717012791514655700,10.54965576171875,-3.0323081016540527,2.028127908706665,-0.13030999898910522
1717012791524540400,10.55954052734375,-2.9338459968566895,2.283302068710327,0.14455200731754303
1717012791534425000,10.569425048828125,-2.4862771034240723,2.37624192237854,0.07724100351333618
1717012791544309800,10.579309814453126,-2.000221014022827,2.1113929748535156,-0.1582060009241104
1717012791554194400,10.5891943359375,-1.5969769954681396,1.888314962387085,-0.13616499304771423
1717012791564078800,10.599078857421874,-1.232782006263733,1.7618520259857178,-0.14573200047016144
1717012791573963500,10.608963623046876,-0.9142249822616577,1.5070810317993164,-0.2621850073337555
1717012791583848200,10.61884814453125,-0.7625799775123596,1.3264650106430054,-0.20174799859523773
1717012791593732900,10.62873291015625,-0.6492639780044556,1.23717200756073,-0.08699800074100494
1717012791603617300,10.6386171875,-0.5466110110282898,1.01453697681427,0.14560000598430634
1717012791613502000,10.648501953125,-0.5388889908790588,0.8596299886703491,0.5372800230979919
1717012791623386600,10.65838671875,-0.54551100730896,0.7437040209770203,0.9506239891052246
1717012791633271300,10.668271240234375,-0.42280900478363037,0.5085629820823669,1.4268989562988281
1717012791643156000,10.678156005859375,-0.10464700311422348,0.19965000450611115,1.8199189901351929
1717012791653040400,10.688040283203126,0.33868199586868286,-0.08907900005578995,1.959934949874878
1717012791662925000,10.697925048828125,0.8901450037956238,-0.41046300530433655,1.7383480072021484
1717012791672809500,10.7078095703125,0.9689159989356995,-0.5275700092315674,1.398677945137024
1717012791682694100,10.717694091796876,0.5487329959869385,-0.5140560269355774,1.0613429546356201
1717012791692578800,10.727578857421875,0.2605859935283661,-0.5480449795722961,0.8410739898681641
1717012791702463200,10.737463134765624,0.24126900732517242,-0.5288360118865967,1.0832589864730835
1717012791712348000,10.747347900390626,0.09301500022411346,-0.34626901149749756,1.9394069910049438
1717012791722232600,10.757232666015625,-0.17598700523376465,-0.22341500222682953,3.0171260833740234
1717012791732117200,10.7671171875,-0.42478999495506287,-0.3475320041179657,3.851300001144409
1717012791742002000,10.777001953125,-0.7606319785118103,-0.7324249744415283,4.119440078735352
1717012791751886300,10.78688623046875,-1.2333049774169922,-1.2251399755477905,3.7011520862579346
1717012791761771000,10.79677099609375,-1.5346440076828003,-1.3081120252609253,2.6737210750579834
1717012791771655700,10.80665576171875,-1.44371497631073,-0.7304900288581848,1.5333770513534546
1717012791781540400,10.816540283203125,-1.0517719984054565,0.02280700020492077,0.9795020222663879
1717012791791424800,10.8264248046875,-0.31421801447868347,0.5278459787368774,1.674800992012024
1717012791801309400,10.836309326171875,0.4822250008583069,0.45507699251174927,3.380640983581543
1717012791811194000,10.846194091796875,0.975380003452301,0.3008610010147095,4.794912815093994
1717012791821078500,10.85607861328125,1.3955039978027344,0.17028899490833282,5.052730083465576
1717012791830963500,10.86596337890625,1.4572030305862427,0.03223099932074547,4.087782859802246
1717012791840848000,10.875847900390625,1.1769620180130005,-0.0030139998998492956,2.4270260334014893
1717012791850732500,10.885732666015626,0.823170006275177,0.2583880126476288,0.7808210253715515
1717012791860617200,10.8956171875,1.227336049079895,0.7331100106239319,-0.2473430037498474
1717012791870501600,10.905501708984374,2.437869071960449,1.024888038635254,-0.4354740083217621
1717012791880386000,10.915385986328126,3.7438950538635254,1.0247100591659546,0.20761999487876892
1717012791890271000,10.92527099609375,4.731115818023682,0.8389679789543152,1.310096025466919
1717012791900155600,10.93515576171875,4.901692867279053,0.7519739866256714,2.118475914001465
1717012791910040000,10.9450400390625,4.057354927062988,0.6495789885520935,2.426780939102173
1717012791919924700,10.9549248046875,2.4666829109191895,0.32206299901008606,2.4246249198913574
1717012791929809200,10.96480908203125,0.8885459899902344,-0.23834800720214844,2.3229000568389893
1717012791939693800,10.97469384765625,0.45963698625564575,-0.7362790107727051,2.1895198822021484
1717012791949578500,10.98457861328125,1.4157099723815918,-1.0522229671478271,2.014017105102539
1717012791959463000,10.994462890625,2.6333680152893066,-1.4721779823303223,2.0408129692077637
1717012791969347600,11.00434765625,3.613893985748291,-1.9057420492172241,2.167051076889038
1717012791979232300,11.014232177734375,4.420714855194092,-1.7757940292358398,2.2144410610198975
1717012791989117000,11.024116943359376,4.60377311706543,-1.2966350317001343,2.0395519733428955
1717012791999001600,11.034001708984375,4.158216953277588,-1.4029079675674438,1.8124419450759888
1717012792008886000,11.043885986328124,3.6881749629974365,-1.7223260402679443,1.3995529413223267
1717012792018770700,11.053770751953126,3.726538896560669,-1.9290610551834106,0.6156420111656189
1717012792028655400,11.0636552734375,4.434031009674072,-2.0416479110717773,-0.2906849980354309
1717012792038539800,11.073539794921874,5.504825115203857,-1.895719051361084,-1.1733490228652954
1717012792048424400,11.083424560546876,6.237461090087891,-1.4149750471115112,-1.864277958869934
1717012792058309000,11.09330908203125,6.07476806640625,-0.9519799947738647,-2.1426219940185547
1717012792068193800,11.10319384765625,4.88301420211792,-0.7887840270996094,-2.124497890472412
1717012792078078200,11.113078125,3.076809883117676,-0.8262270092964172,-2.1459999084472656
1717012792087963000,11.122962890625,1.0814470052719116,-0.672182023525238,-2.436800003051758
1717012792097847300,11.132847412109374,-0.5124409794807434,-0.36734500527381897,-2.9478390216827393
1717012792107732200,11.142732177734375,-1.4995529651641846,-0.079475998878479,-3.4118709564208984
1717012792117616600,11.15261669921875,-1.9684419631958008,0.24521900713443756,-3.774296998977661
1717012792127501000,11.1625009765625,-2.1899518966674805,0.5657749772071838,-3.8946380615234375
1717012792137385700,11.1723857421875,-2.4527618885040283,0.6974200010299683,-4.064509868621826
1717012792147270400,11.1822705078125,-2.790210008621216,0.6179360151290894,-4.081208229064941
1717012792157155000,11.192155029296876,-3.2321670055389404,0.6055480241775513,-3.9025659561157227
1717012792167039500,11.20203955078125,-3.6777329444885254,0.7292389869689941,-3.875653028488159
1717012792176924200,11.211924072265624,-4.066987037658691,1.196990966796875,-4.370121955871582
1717012792186808800,11.221808837890626,-4.224790096282959,1.8631930351257324,-5.052097797393799
1717012792196693200,11.231693359375,-3.9894309043884277,1.4545539617538452,-4.909677982330322
1717012792206578200,11.241578125,-3.680345058441162,0.9948430061340332,-4.693342208862305
1717012792216462600,11.251462646484375,-3.2682769298553467,0.5318740010261536,-4.118673801422119
1717012792226347300,11.26134716796875,-2.888221025466919,0.08789899945259094,-3.477339029312134
1717012792236232000,11.27123193359375,-2.5041770935058594,0.037519000470638275,-2.8466711044311523
1717012792246116400,11.281116455078125,-2.1217410564422607,-0.02118300087749958,-2.1437370777130127
1717012792256001000,11.2910009765625,-1.8205920457839966,-0.13614700734615326,-1.394989013671875
1717012792265885400,11.300885498046876,-1.7628740072250366,-0.2105170041322708,-0.69999098777771
1717012792275770400,11.310770263671875,-1.5574990510940552,-0.1492139995098114,-0.2103929966688156
1717012792285654800,11.32065478515625,-1.141198992729187,-0.23057100176811218,0.16368499398231506
1717012792295539200,11.330539306640626,-1.021759033203125,-0.6284570097923279,0.38934800028800964
1717012792305424000,11.340423828125,-1.267807960510254,-0.6195650100708008,0.1298779994249344
1717012792315308500,11.35030859375,-1.734246015548706,-0.5132520198822021,-0.20889699459075928
1717012792325193200,11.360193115234376,-2.1369969844818115,0.08219700306653976,-0.6895170211791992
1717012792335077600,11.37007763671875,-2.5623979568481445,0.9545580148696899,-1.0764139890670776
1717012792344962300,11.37996240234375,-3.040318012237549,1.7236460447311401,-1.1787309646606445
1717012792354847000,11.389846923828125,-3.2466540336608887,2.0853168964385986,-1.0237849950790405
1717012792364731600,11.399731689453125,-3.0589239597320557,1.9882529973983765,-0.531827986240387
1717012792374616000,11.409615966796874,-2.67353892326355,1.500203013420105,0.22413699328899384
1717012792384500700,11.419500732421875,-2.284430980682373,1.2017619609832764,0.7209100127220154
1717012792394385400,11.429385498046875,-1.4363449811935425,1.167009949684143,0.7223280072212219
1717012792404270000,11.43927001953125,-0.5930759906768799,1.3008079528808594,0.5722619891166687
1717012792414154500,11.449154541015625,-0.33285999298095703,1.5582460165023804,0.536208987236023
1717012792424039000,11.459038818359375,-0.44068801403045654,1.589797019958496,0.16416700184345245
1717012792433923800,11.468923828125,-0.5229499936103821,1.3254369497299194,-0.4230650067329407
1717012792443808300,11.478808349609375,-0.21515999734401703,1.4699499607086182,-0.27365198731422424
1717012792453693000,11.48869287109375,-0.2449280023574829,1.499959945678711,-0.35652199387550354
1717012792463577600,11.49857763671875,-0.5735419988632202,1.319167971611023,-0.5844169855117798
1717012792473462000,11.5084619140625,-0.7868340015411377,1.1129339933395386,-0.2851339876651764
1717012792483346700,11.5183466796875,-0.7942669987678528,1.0415469408035278,0.24229200184345245
1717012792493231400,11.5282314453125,-0.5930140018463135,0.9156380295753479,0.7242339849472046
1717012792503116000,11.538115966796875,-0.3656109869480133,0.634909987449646,1.280987024307251
1717012792513000400,11.54800048828125,-0.2844879925251007,0.49992799758911133,1.8295890092849731
1717012792522885000,11.557885009765625,-0.0051910001784563065,0.43994200229644775,2.1532719135284424
1717012792532769800,11.567769775390625,0.4934470057487488,0.2159540057182312,2.0002169609069824
1717012792542654000,11.577654052734376,0.8987569808959961,-0.030435999855399132,1.3321739435195923
1717012792552539000,11.587538818359375,0.9950060248374939,-0.3323490023612976,0.5865389704704285
1717012792562423300,11.59742333984375,0.8016039729118347,-0.5690789818763733,-0.11316800117492676
1717012792572308200,11.60730810546875,0.40208300948143005,-0.5432630181312561,-0.8105340003967285
1717012792582192400,11.6171923828125,-0.03273199871182442,-0.2834100127220154,-1.1740269660949707
1717012792592077000,11.6270771484375,-0.2653859853744507,0.21807099878787994,-1.0688220262527466
1717012792601961700,11.636961669921876,-0.43470901250839233,0.8584570288658142,-0.4646570086479187
1717012792611846400,11.646846435546875,-0.4437670111656189,0.9795650243759155,0.4234730005264282
1717012792621730800,11.656730712890624,-0.3894129991531372,0.2612519860267639,1.4555790424346924
1717012792631615500,11.666615478515626,-0.28512999415397644,-0.5749970078468323,2.2852630615234375
1717012792641500200,11.676500244140625,-0.009704000316560268,-1.0503979921340942,2.6082100868225098
1717012792651384800,11.686384765625,0.2554360032081604,-1.1347179412841797,1.9601680040359497
1717012792661269200,11.696269287109375,0.2731490135192871,-0.8541749715805054,0.7785339951515198
1717012792671153700,11.706153564453125,0.538519024848938,-0.07853999733924866,-0.2907710075378418
1717012792681038300,11.716038330078124,1.1436150074005127,0.8723670244216919,-0.8686169981956482
1717012792690923000,11.725923095703125,1.4948920011520386,1.2170939445495605,-0.7980939745903015
1717012792700807700,11.7358076171875,1.8359129428863525,0.8056750297546387,-0.0720750018954277
1717012792710692000,11.745692138671876,2.3119308948516846,0.33733999729156494,1.0847389698028564
1717012792720576800,11.75557666015625,2.47434401512146,0.45947200059890747,2.07499098777771
1717012792730461400,11.76546142578125,2.0674750804901123,0.6587769985198975,2.7999930381774902
1717012792740346000,11.77534619140625,1.2003799676895142,0.6462209820747375,3.4279940128326416
1717012792750230500,11.78523046875,0.4347040057182312,0.47457700967788696,3.5943961143493652
1717012792760115200,11.795115234375,0.08936399966478348,1.7156620025634766,2.3163158893585205
1717012792770000000,11.804999755859376,0.38189101219177246,3.0221290588378906,1.324252963066101
1717012792779884500,11.814884521484375,0.8631119728088379,2.9809041023254395,1.586601972579956
1717012792789769000,11.82476904296875,1.6832900047302246,2.29032301902771,2.5260820388793945
1717012792799653400,11.8346533203125,2.5130319595336914,1.6490579843521118,3.3944649696350098
1717012792809538000,11.8445380859375,2.9528250694274902,1.084846019744873,3.8939719200134277
1717012792819422700,11.854422607421874,3.102260112762451,0.7702770233154297,3.503977060317993
1717012792829307400,11.864307373046875,3.3882079124450684,0.6834210157394409,2.2015819549560547
1717012792839191800,11.87419189453125,3.8657660484313965,0.5835369825363159,1.206065058708191
1717012792849076500,11.884076416015626,4.631013870239258,0.45882898569107056,0.6984519958496094
1717012792858961200,11.893961181640625,5.964011192321777,0.04866399988532066,0.9187620282173157
1717012792868845800,11.903845703125,7.740808010101318,-0.7826679944992065,1.474208950996399
1717012792878730200,11.913730224609376,9.09904670715332,-1.146934986114502,1.7257670164108276
1717012792888615000,11.923614990234375,9.024836540222168,-0.9599480032920837,1.1662139892578125
1717012792898499300,11.933499267578124,7.419068813323975,-0.6031579971313477,-0.29742899537086487
1717012792908384000,11.943384033203126,5.380053997039795,-0.3065269887447357,-1.8379429578781128
1717012792918268700,11.9532685546875,3.3360440731048584,-0.3772209882736206,-3.0063540935516357
1717012792928153000,11.963153076171874,1.6192359924316406,-0.6561769843101501,-3.653083086013794
1717012792938037800,11.973037841796875,0.384988009929657,-0.7873409986495972,-3.9552669525146484
1717012792947922400,11.98292236328125,-0.6464080214500427,-0.676272988319397,-4.039412975311279
1717012792957806800,11.992806884765624,-1.6339260339736938,-0.745818018913269,-4.003530025482178
1717012792967691500,12.00269140625,-2.525541067123413,-0.901453971862793,-4.098023891448975
1717012792977576200,12.012576171875,-3.3460330963134766,-1.0275640487670898,-4.161619186401367
1717012792987460900,12.0224609375,-4.000826835632324,-1.2516510486602783,-4.206894874572754
1717012792997345500,12.032345458984375,-4.523062229156494,-1.4917199611663818,-4.1983160972595215
1717012793007230000,12.04222998046875,-4.714449882507324,-1.6589759588241577,-4.082653045654297
1717012793017114600,12.052114501953126,-4.5435590744018555,-1.811980962753296,-3.7181220054626465
1717012793026999000,12.0619990234375,-4.4740471839904785,-2.539185047149658,-2.732897996902466
1717012793036883700,12.0718837890625,-3.853637933731079,-1.6889480352401733,-3.213517904281616
1717012793046768400,12.081768310546876,-3.4869089126586914,-0.8375579714775085,-3.4812140464782715
1717012793056652800,12.09165283203125,-3.4559268951416016,-1.4876459836959839,-2.8329710960388184
1717012793066537500,12.101537353515624,-3.207942008972168,-1.7733169794082642,-2.3903770446777344
1717012793076422100,12.111422119140625,-2.66955304145813,-1.1786539554595947,-2.063502073287964
1717012793086306600,12.121306640625,-2.282841920852661,-0.9829229712486267,-1.9404009580612183
1717012793096191200,12.131191162109374,-2.4318740367889404,-0.9935380220413208,-1.5867209434509277
1717012793106075600,12.14107568359375,-2.2542989253997803,-0.7644299864768982,-1.2349770069122314
1717012793115960300,12.150960205078125,-1.9890389442443848,-0.6307439804077148,-0.6255810260772705
1717012793125845000,12.160844970703126,-1.846431016921997,-0.6837949752807617,0.15633399784564972
1717012793135729400,12.1707294921875,-1.8523449897766113,-0.6158360242843628,0.565867006778717
1717012793145614000,12.180614013671875,-2.0586750507354736,-0.22946900129318237,0.5902940034866333
1717012793155498800,12.190498779296876,-2.2277400493621826,0.14602400362491608,0.5546349883079529
1717012793165383200,12.200383056640625,-2.4197919368743896,0.44481900334358215,0.4173080027103424
1717012793175267800,12.210267822265624,-2.4894330501556396,0.6638550162315369,0.4562459886074066
1717012793185152500,12.220152587890626,-2.5283470153808594,0.5662840008735657,0.4721969962120056
1717012793195037200,12.230037109375,-2.62267804145813,0.5810269713401794,0.0161569993942976
1717012793204921600,12.239921630859374,-2.4541420936584473,0.6872220039367676,-0.16387300193309784
1717012793214806300,12.24980615234375,-2.189713954925537,0.7185770273208618,-0.1726980060338974
1717012793224690700,12.259690673828125,-1.6805709600448608,0.6916620135307312,-0.06375899910926819
1717012793234575400,12.269575439453124,-1.2124569416046143,0.6581289768218994,0.15779200196266174
1717012793244459800,12.279459716796875,-0.9123650193214417,0.6225029826164246,0.4190340042114258
1717012793254344400,12.289344482421875,-0.6874920129776001,0.6436020135879517,0.699226975440979
1717012793264229000,12.29922900390625,-0.5251929759979248,0.7484819889068604,0.8145809769630432
1717012793274113800,12.30911376953125,-0.48895499110221863,0.7771850228309631,0.8564649820327759
1717012793283998200,12.318998291015625,-0.5239629745483398,0.7345479726791382,0.8963720202445984
1717012793293882600,12.328882568359376,-0.41117098927497864,0.7972379922866821,1.0194979906082153
1717012793303767300,12.338767333984375,-0.2561360001564026,0.7697910070419312,1.1403980255126953
1717012793313652000,12.34865185546875,-0.11850900202989578,0.7118319869041443,1.2419179677963257
1717012793323536400,12.358536376953126,-0.01640699990093708,0.6246659755706787,1.3367350101470947
1717012793333421000,12.368421142578125,-0.03072500042617321,0.49813199043273926,1.3125879764556885
1717012793343305700,12.3783056640625,-0.13738000392913818,0.31930598616600037,1.251670002937317
1717012793353190100,12.388190185546875,-0.4451040029525757,0.11624500155448914,1.1941360235214233
1717012793363074800,12.39807470703125,-0.8008829951286316,0.0409960001707077,1.1649090051651
1717012793372959500,12.40795947265625,-0.9391070008277893,0.11919599771499634,1.0639270544052124
1717012793382844200,12.41784423828125,-0.672885000705719,0.19055700302124023,0.9199410080909729
1717012793392728300,12.427728271484375,0.00009100000170292333,0.2948459982872009,0.8335530161857605
1717012793402613000,12.437613037109376,0.7640730142593384,0.383076012134552,0.8836420178413391
1717012793412497700,12.44749755859375,1.510457992553711,0.009661000221967697,1.2301139831542969
1717012793422382300,12.45738232421875,1.8787670135498047,-0.6362709999084473,1.6080909967422485
1717012793432266800,12.467266845703126,1.721413016319275,-0.49381598830223083,0.997672975063324
1717012793442151400,12.4771513671875,1.1891299486160278,-0.031052999198436737,0.19413800537586212
1717012793452036000,12.4870361328125,0.4209040105342865,0.1455570012331009,-0.16468900442123413
1717012793461920500,12.49692041015625,-0.1304759979248047,-0.16835400462150574,0.056248001754283905
1717012793471805200,12.50680517578125,-0.22918100655078888,-0.2994830012321472,0.3497979938983917
1717012793481689600,12.516689697265624,-0.008944000117480755,-0.3355860114097595,0.6342380046844482
1717012793491574300,12.52657421875,0.27204400300979614,-0.8148689866065979,1.018589973449707
1717012793501458700,12.536458740234375,0.2528350055217743,-1.260694980621338,0.9724720120429993
1717012793511343400,12.54634326171875,-0.12413100153207779,-1.4685560464859009,0.7187780141830444
1717012793521228000,12.55622802734375,-0.15050500631332397,-1.809244990348816,0.6206219792366028
1717012793531112400,12.566112548828125,0.18199500441551208,-1.3785959482192993,0.35889801383018494
1717012793540997000,12.5759970703125,0.5287960171699524,-0.07727599889039993,0.05511799827218056
1717012793550881800,12.5858818359375,0.9230369925498962,0.8037779927253723,0.31049400568008423
1717012793560766500,12.595766357421875,1.2544289827346802,0.7310220003128052,1.2427959442138672
1717012793570651000,12.60565087890625,0.9803429841995239,0.24401800334453583,2.3030359745025635
