time,seconds_elapsed,z,y,x
1717012781086275800,0.12127587890625,-0.81454998254776,-1.0674124956130981,-0.03368749842047691
1717012781096162600,0.13116259765625,-0.7964000105857849,-1.1015125513076782,0.002474999986588955
1717012781106049500,0.141049560546875,-0.6602749824523926,-1.2611500024795532,0.10779999941587448
1717012781115934500,0.1509345703125,-0.39627498388290405,-1.3781625032424927,0.15152500569820404
1717012781125819100,0.160819091796875,-0.12168750166893005,-1.1940499544143677,0.08552499860525131
1717012781135703800,0.170703857421875,0.10381250083446503,-0.8610249757766724,-0.04647500067949295
1717012781145588500,0.18058837890625,0.24860000610351562,-0.6055499911308289,-0.2209624946117401
1717012781155473200,0.19047314453125,0.32202500104904175,-0.4661250114440918,-0.3689124882221222
1717012781165358000,0.200358154296875,0.26028749346733093,-0.43738749623298645,-0.40933749079704285
1717012781175242800,0.21024267578125,0.035750001668930054,-0.5300624966621399,-0.36781248450279236
1717012781185127400,0.22012744140625,-0.28888750076293945,-0.6450124979019165,-0.27211248874664307
1717012781195012000,0.23001220703125,-0.5303375124931335,-0.7545999884605408,-0.133650004863739
1717012781204896800,0.239896728515625,-0.3143250048160553,-0.8960874676704407,0.04619999974966049
1717012781214781700,0.24978173828125,0.3698749840259552,-0.9322500228881836,0.256850004196167
1717012781224666400,0.259666259765625,0.491287499666214,-0.9674500226974487,0.3484250009059906
1717012781234551000,0.269551025390625,0.00494999997317791,-1.1695749759674072,0.14836250245571136
1717012781244435700,0.279435791015625,-0.44632500410079956,-1.224987506866455,-0.0635249987244606
1717012781254320400,0.2893203125,-0.5590749979019165,-0.8747749924659729,-0.020899999886751175
1717012781264205300,0.299205322265625,-0.49953749775886536,-0.36932501196861267,0.1163249984383583
1717012781274090000,0.309090087890625,-0.455949991941452,-0.1522125005722046,0.13021250069141388
1717012781283975000,0.318974853515625,-0.46447500586509705,-0.15331250429153442,0.016362499445676804
1717012781293859600,0.328859619140625,-0.4452250003814697,-0.16499999165534973,-0.08799999952316284
1717012781303744500,0.33874462890625,-0.3973749876022339,-0.3619000017642975,-0.116737499833107
1717012781313629200,0.348629150390625,-0.2866874933242798,-0.8237624764442444,-0.1699499934911728
1717012781323513600,0.358513671875,-0.0035749999806284904,-1.5101624727249146,-0.23691250383853912
1717012781333398500,0.3683984375,0.09212499856948853,-1.7241125106811523,-0.3465000092983246
1717012781343283200,0.378283203125,0.05389999970793724,-1.1131999492645264,-0.4987125098705292
1717012781353168100,0.388168212890625,0.15812499821186066,-0.1714625060558319,-0.6987749934196472
1717012781363052800,0.398052734375,0.32202500104904175,0.4542999863624573,-0.9286749958992004
1717012781372937500,0.4079375,0.3231250047683716,0.5395500063896179,-1.1042624711990356
1717012781382822400,0.417822509765625,0.16981250047683716,0.3139125108718872,-1.1978999376296997
1717012781392706800,0.427706787109375,-0.03451250120997429,-0.1788875013589859,-1.2425874471664429
1717012781402591700,0.437591796875,-0.24626250565052032,-0.8855000138282776,-1.2735249996185303
1717012781412476400,0.447476318359375,-0.4059000015258789,-1.6484874486923218,-1.2989624738693237
1717012781422361300,0.457361328125,-0.4292750060558319,-2.320037603378296,-1.3341624736785889
1717012781432246000,0.46724609375,-0.3250499963760376,-2.8692123889923096,-1.3979624509811401
1717012781442131000,0.477130859375,-0.1461624950170517,-3.2938125133514404,-1.510849952697754
1717012781452015600,0.487015625,0.1868624985218048,-3.799262523651123,-1.6087499856948853
1717012781461900300,0.496900390625,0.5944125056266785,-4.052537441253662,-1.7524374723434448
1717012781471785000,0.506784912109375,0.7497875094413757,-3.2597124576568604,-2.4164249897003174
1717012781481670000,0.516669921875,0.6785625219345093,-1.944387435913086,-3.5413124561309814
1717012781491554600,0.526554443359375,0.5317124724388123,-0.9205625057220459,-4.357512474060059
1717012781501439500,0.536439453125,0.40933749079704285,-0.1266375035047531,-5.070587635040283
1717012781511324200,0.54632421875,0.3550249934196472,0.3053874969482422,-5.743100166320801
1717012781521209000,0.556208984375,0.3348124921321869,0.41923749446868896,-6.328437328338623
1717012781531093800,0.56609375,0.19648750126361847,0.42666250467300415,-6.799924850463867
1717012781540978400,0.575978515625,-0.13021250069141388,0.3713875114917755,-7.086199760437012
1717012781550863000,0.585863037109375,-0.49527499079704285,0.15001249313354492,-7.090462684631348
1717012781560747800,0.595747802734375,-0.7379624843597412,-0.14368750154972076,-6.90098762512207
1717012781570632700,0.6056328125,-1.0049874782562256,-0.5354250073432922,-6.824399948120117
1717012781580517400,0.615517333984375,-1.521162509918213,-1.0514625310897827,-6.9627251625061035
1717012781590402300,0.62540234375,-2.4022624492645264,-1.1536250114440918,-7.064887523651123
1717012781600287000,0.635286865234375,-3.3176000118255615,-0.5396875143051147,-6.780674934387207
1717012781610171600,0.645171630859375,-3.854949951171875,0.42666250467300415,-5.995412349700928
1717012781620056600,0.655056640625,-3.975262403488159,1.2376375198364258,-4.897062301635742
1717012781629941200,0.664941162109375,-3.753887414932251,1.5695624351501465,-3.7158000469207764
1717012781639826200,0.674826171875,-3.4527623653411865,1.367437481880188,-2.636699914932251
1717012781649710800,0.6847109375,-3.3739750385284424,0.7416750192642212,-1.6736500263214111
1717012781659595500,0.694595458984375,-3.5996124744415283,-0.04908749833703041,-0.6785625219345093
1717012781669480400,0.70448046875,-4.009224891662598,-0.5343250036239624,0.4452250003814697
1717012781679365400,0.714365478515625,-4.342387676239014,-0.6023874878883362,1.5999499559402466
1717012781689250000,0.72425,-4.437125205993652,-0.38321250677108765,2.68331241607666
1717012781699135000,0.734135009765625,-4.296599864959717,0.010587500408291817,3.6165249347686768
1717012781709019400,0.744019287109375,-4.0125250816345215,0.4628250002861023,4.350912570953369
1717012781718904000,0.753904052734375,-3.609099864959717,0.7895249724388123,4.897887706756592
1717012781728789000,0.7637890625,-3.1196000576019287,0.9736375212669373,5.292649745941162
1717012781738674000,0.773673828125,-2.6034250259399414,1.0843249559402466,5.5725998878479
1717012781748558600,0.78355859375,-2.115025043487549,1.1631125211715698,5.7598748207092285
1717012781758443500,0.793443603515625,-1.6946874856948853,1.217424988746643,5.875925064086914
1717012781768328200,0.803328125,-1.3221999406814575,1.2513874769210815,5.930099964141846
1717012781778213000,0.813213134765625,-0.9933000206947327,1.2599124908447266,5.93120002746582
1717012781788097800,0.823097900390625,-0.7134875059127808,1.2280124425888062,5.88224983215332
1717012781797982500,0.832982421875,-0.46021249890327454,1.2205874919891357,5.788612365722656
1717012781807867100,0.8428671875,-0.2079000025987625,1.3056999444961548,5.6215500831604
1717012781817752000,0.852751953125,0.045375000685453415,1.4482874870300293,5.33101224899292
1717012781827636700,0.86263671875,0.3040125072002411,1.5589749813079834,4.907512664794922
1717012781837521700,0.872521728515625,0.5678749680519104,1.617550015449524,4.383912563323975
1717012781847406300,0.88240625,0.8307750225067139,1.6568750143051147,3.788949966430664
1717012781857291300,0.892291259765625,1.092574954032898,1.7410249710083008,3.145174980163574
1717012781867176000,0.902176025390625,1.352174997329712,1.8335624933242798,2.4512124061584473
1717012781877060900,0.912060791015625,1.603387475013733,1.9420499801635742,1.7638499736785889
1717012781886945500,0.921945556640625,1.8353500366210938,2.1624624729156494,1.1455124616622925
1717012781896830500,0.93183056640625,2.088624954223633,2.480637550354004,0.5792874693870544
1717012781906715100,0.941715087890625,2.369537591934204,2.737075090408325,0.03231250122189522
1717012781916599800,0.951599853515625,2.6420624256134033,2.876499891281128,-0.445499986410141
1717012781926484700,0.961484619140625,2.875124931335449,2.793449878692627,-0.8009374737739563
1717012781936369400,0.971369384765625,2.995300054550171,2.410374879837036,-1.0243749618530273
1717012781946254300,0.98125439453125,2.959137439727783,1.8176125288009644,-1.0808874368667603
1717012781956139000,0.991138916015625,2.8091249465942383,1.2057374715805054,-0.9882124662399292
1717012781966023700,1.001023681640625,2.6303749084472656,0.6767749786376953,-0.8243125081062317
1717012781975908400,1.010908447265625,2.4855875968933105,0.32023748755455017,-0.6754000186920166
1717012781985793300,1.020793212890625,2.4344375133514404,0.20845000445842743,-0.6221874952316284
1717012781995678200,1.03067822265625,2.487649917602539,0.27018749713897705,-0.7126625180244446
1717012782005563000,1.04056298828125,2.60260009765625,0.3936625123023987,-0.9372000098228455
1717012782015447800,1.05044775390625,2.7335000038146973,0.4064500033855438,-1.2500125169754028
1717012782025332500,1.06033251953125,2.8516125679016113,0.23718750476837158,-1.5969250202178955
1717012782035217400,1.070217529296875,2.93149995803833,-0.018149999901652336,-1.9141374826431274
1717012782045102000,1.08010205078125,2.903862476348877,-0.2714250087738037,-2.157787561416626
1717012782054987000,1.089987060546875,2.7325375080108643,-0.5779125094413757,-2.324850082397461
1717012782064871700,1.09987158203125,2.4483249187469482,-0.9281250238418579,-2.473900079727173
1717012782074756400,1.10975634765625,2.142937421798706,-1.207937479019165,-2.6600749492645264
1717012782084641000,1.11964111328125,1.9577250480651855,-1.4389375448226929,-2.9474499225616455
1717012782094526000,1.12952587890625,1.9417749643325806,-1.525149941444397,-3.385937452316284
1717012782104411000,1.139410888671875,2.029087543487549,-1.3462624549865723,-3.8978500366210938
1717012782114295600,1.149295654296875,2.099212408065796,-0.8971874713897705,-4.421450138092041
1717012782124180500,1.159180419921875,2.0897250175476074,-0.1639000028371811,-4.998125076293945
1717012782134065200,1.169065185546875,1.9406750202178955,0.5469750165939331,-5.659087657928467
1717012782143949800,1.17894970703125,1.5320249795913696,0.8597875237464905,-6.3508501052856445
1717012782153834800,1.188834716796875,0.8520874977111816,0.671412467956543,-6.88613748550415
1717012782163719700,1.1987197265625,0.07411249727010727,0.14891250431537628,-7.039312362670898
1717012782173604000,1.20860400390625,-0.6070625185966492,-0.283112496137619,-6.747812271118164
1717012782183489000,1.218489013671875,-1.146612524986267,-0.43216249346733093,-6.305062294006348
1717012782193374000,1.2283740234375,-1.5200624465942383,-0.3959999978542328,-5.993212699890137
1717012782203258600,1.238258544921875,-1.7351125478744507,-0.36079999804496765,-5.876200199127197
1717012782213143600,1.2481435546875,-1.9787625074386597,-0.41401249170303345,-5.886787414550781
1717012782223028200,1.2580283203125,-2.4215126037597656,-0.33316248655319214,-5.82078742980957
1717012782232913000,1.267912841796875,-3.2069125175476074,-0.21504999697208405,-5.639975070953369
1717012782242797800,1.2777978515625,-4.238025188446045,-0.2437874972820282,-5.227062702178955
1717012782252682800,1.287682861328125,-5.111837387084961,-0.3926999866962433,-4.300037384033203
1717012782262567400,1.2975673828125,-5.586487293243408,-0.7141749858856201,-2.851749897003174
1717012782272452000,1.3074521484375,-5.6758623123168945,-1.1196625232696533,-1.1958374977111816
1717012782282337000,1.3173369140625,-5.501237392425537,-1.3122999668121338,0.3334375023841858
1717012782292221700,1.3272216796875,-5.193787574768066,-1.1174625158309937,1.540274977684021
1717012782302106600,1.337106689453125,-4.873412609100342,-0.5821750164031982,2.3916749954223633
1717012782311991300,1.3469912109375,-4.6105122566223145,0.06696250289678574,2.899324893951416
1717012782321876200,1.356876220703125,-4.418974876403809,0.6980875134468079,3.1546623706817627
1717012782331761200,1.36676123046875,-4.261537551879883,1.2610124349594116,3.2377123832702637
1717012782341645800,1.376645751953125,-4.086912631988525,1.6377625465393066,3.2249250411987305
1717012782351530800,1.38653076171875,-3.899637460708618,1.8569375276565552,3.233449935913086
1717012782361415200,1.396415283203125,-3.6836249828338623,2.0112125873565674,3.3771374225616455
1717012782371300000,1.406300048828125,-3.417562484741211,2.154900074005127,3.6964125633239746
1717012782381185000,1.41618505859375,-3.1344499588012695,2.2197999954223633,4.159375190734863
1717012782391069700,1.426069580078125,-2.872649908065796,2.1582000255584717,4.705249786376953
1717012782400954600,1.43595458984375,-2.5928375720977783,1.9867374897003174,5.235175132751465
1717012782410839300,1.44583935546875,-2.250187397003174,1.7516125440597534,5.628974914550781
1717012782420724000,1.455723876953125,-1.857487440109253,1.5387624502182007,5.800300121307373
1717012782430608600,1.465608642578125,-1.4860999584197998,1.4471875429153442,5.756712436676025
1717012782440493600,1.47549365234375,-1.1508749723434448,1.4909124374389648,5.545925140380859
1717012782450378200,1.485378173828125,-0.8570374846458435,1.6218124628067017,5.195849895477295
1717012782460263200,1.49526318359375,-0.6165499687194824,1.8665624856948853,4.754199981689453
1717012782470148000,1.505148193359375,-0.40053749084472656,2.19216251373291,4.2657999992370605
1717012782480032800,1.51503271484375,-0.17820000648498535,2.5040125846862793,3.7761623859405518
1717012782489917700,1.524917724609375,0.08579999953508377,2.7231874465942383,3.365449905395508
1717012782499802400,1.53480224609375,0.3667125105857849,2.797712564468384,3.0791749954223633
1717012782509687300,1.544687255859375,0.6104999780654907,2.8125624656677246,2.923799991607666
1717012782519572000,1.554572021484375,0.8051999807357788,2.821087598800659,2.8353874683380127
1717012782529456600,1.56445654296875,0.9626374840736389,2.772137403488159,2.7289624214172363
1717012782539341600,1.574341552734375,1.0872124433517456,2.640275001525879,2.5641000270843506
1717012782549226200,1.584226318359375,1.1776875257492065,2.560387372970581,2.351249933242798
1717012782559111200,1.594111083984375,1.251112461090088,2.636975049972534,2.1054000854492188
1717012782568996000,1.60399609375,1.304324984550476,2.800874948501587,1.8606499433517456
1717012782578880800,1.613880859375,1.379812479019165,2.9371373653411865,1.6179624795913696
1717012782588765700,1.623765625,1.528862476348877,2.992412567138672,1.3604249954223633
1717012782598650400,1.633650390625,1.7331874370574951,2.960512399673462,1.0348249673843384
1717012782608535000,1.64353515625,1.9694124460220337,2.7285499572753906,0.5559124946594238
1717012782618420000,1.653419921875,2.20989990234375,2.3784749507904053,-0.03148749843239784
1717012782628304600,1.6633046875,2.386587381362915,2.0922000408172607,-0.6477624773979187
1717012782638189600,1.673189453125,2.507999897003174,2.0091500282287598,-1.2798500061035156
1717012782648074200,1.68307421875,2.6548500061035156,2.0772125720977783,-1.9247249364852905
1717012782657959200,1.692959228515625,2.899600028991699,2.147475004196167,-2.5132250785827637
1717012782667843800,1.70284375,3.22409987449646,2.0762500762939453,-2.9570748805999756
1717012782677728800,1.712728759765625,3.550800085067749,1.9069875478744507,-3.213512420654297
1717012782687613700,1.72261376953125,3.727487564086914,1.777187466621399,-3.3114125728607178
1717012782697498400,1.732498291015625,3.6881625652313232,1.452549934387207,-3.4018874168395996
1717012782707383000,1.742383056640625,3.5444750785827637,0.8130375146865845,-3.5880625247955322
1717012782717268000,1.75226806640625,3.3774125576019287,0.09679999947547913,-3.890287399291992
1717012782727152600,1.762152587890625,3.2613625526428223,-0.5565999746322632,-4.419250011444092
1717012782737037600,1.77203759765625,3.1762499809265137,-1.0429375171661377,-5.2439751625061035
1717012782746922200,1.781922119140625,2.823975086212158,-1.0505000352859497,-6.24758768081665
1717012782756807200,1.79180712890625,2.171674966812134,-0.4501749873161316,-7.145737648010254
1717012782766691800,1.80169189453125,1.462862491607666,0.45223748683929443,-7.663974761962891
1717012782776576800,1.81157666015625,0.7903500199317932,1.209862470626831,-7.727912425994873
1717012782786461400,1.82146142578125,0.17627499997615814,1.3620749711990356,-7.62258768081665
1717012782796346400,1.831346435546875,-0.4548499882221222,0.8619874715805054,-7.676762580871582
1717012782806231000,1.84123095703125,-1.1987249851226807,0.28943750262260437,-8.000300407409668
1717012782816115700,1.85111572265625,-2.0607125759124756,-0.22893749177455902,-8.723962783813477
1717012782826000600,1.861000732421875,-3.142975091934204,-0.9855999946594238,-9.646587371826172
1717012782835885600,1.870885498046875,-4.282712459564209,-1.0918874740600586,-9.668999671936035
1717012782845770200,1.880770263671875,-5.251262664794922,-0.46722498536109924,-8.159937858581543
1717012782855655200,1.8906552734375,-5.795074939727783,-0.20336249470710754,-5.68672513961792
1717012782865539800,1.900539794921875,-5.980149745941162,-0.6481750011444092,-2.921875
1717012782875424800,1.9104248046875,-6.066362380981445,-1.2984124422073364,-0.38266250491142273
1717012782885309700,1.920309814453125,-6.124937534332275,-1.5943125486373901,1.574375033378601
1717012782895194400,1.9301943359375,-6.233425140380859,-1.4282125234603882,2.7971625328063965
1717012782905079000,1.9400791015625,-6.37711238861084,-0.9631875157356262,3.4112374782562256
1717012782914963700,1.949963623046875,-6.501687526702881,-0.4609000086784363,3.7251498699188232
1717012782924848600,1.9598486328125,-6.591062545776367,-0.113987497985363,3.9912123680114746
1717012782934733300,1.9697333984375,-6.641112327575684,0.07438749819993973,4.29976224899292
1717012782944618200,1.9796181640625,-6.574012279510498,0.15633749961853027,4.656300067901611
1717012782954503200,1.989503173828125,-6.3292622566223145,0.25423750281333923,5.039374828338623
1717012782964387800,1.999387939453125,-5.8354997634887695,0.4010874927043915,5.3959126472473145
1717012782974272800,2.009272705078125,-5.097949981689453,0.5948249697685242,5.6247124671936035
1717012782984157400,2.019157470703125,-4.174224853515625,0.8662499785423279,5.693874835968018
1717012782994042000,2.0290419921875,-3.164287567138672,1.2801250219345093,5.6491875648498535
1717012783003927000,2.038927001953125,-2.211824893951416,1.9346250295639038,5.521450042724609
1717012783013812000,2.04881201171875,-1.4030499458312988,2.716862440109253,5.2809624671936035
1717012783023696600,2.058696533203125,-0.7570750117301941,3.3266749382019043,4.922362327575684
1717012783033581300,2.068581298828125,-0.29727500677108765,3.685275077819824,4.528562545776367
1717012783043466200,2.07846630859375,0.029424998909235,3.8640248775482178,4.1753249168396
1717012783053351200,2.08835107421875,0.3550249934196472,4.102449893951416,3.8975749015808105
1717012783063235800,2.09823583984375,0.7860875129699707,4.596212387084961,3.67826247215271
1717012783073120800,2.108120849609375,1.3245375156402588,5.195437431335449,3.525087594985962
1717012783083005400,2.11800537109375,1.8865000009536743,5.443349838256836,3.473937511444092
1717012783092890000,2.12789013671875,2.383424997329712,5.234762668609619,3.4781999588012695
1717012783102775000,2.137775146484375,2.8122875690460205,4.716525077819824,3.393087387084961
1717012783112659700,2.14765966796875,3.189037561416626,4.017337322235107,3.129225015640259
1717012783122544600,2.157544677734375,3.449737548828125,3.3149874210357666,2.733224868774414
1717012783132429300,2.16742919921875,3.562624931335449,2.8413000106811523,2.277824878692627
1717012783142314200,2.177314208984375,3.59975004196167,2.813662528991699,1.7232874631881714
1717012783152199000,2.187198974609375,3.684999942779541,3.2339999675750732,1.0081499814987183
1717012783162083800,2.197083740234375,3.876537561416626,3.6916000843048096,0.14932499825954437
1717012783171968800,2.20696875,4.080862522125244,3.7288625240325928,-0.8020374774932861
1717012783181853400,2.216853515625,4.259612560272217,3.235100030899048,-1.7353874444961548
1717012783191738000,2.226738037109375,4.385149955749512,2.3549625873565674,-2.5367374420166016
1717012783201622800,2.236622802734375,4.541625022888184,1.4141875505447388,-3.1241374015808105
1717012783211507700,2.2465078125,4.670462608337402,0.7363125085830688,-3.488100051879883
1717012783221392600,2.256392578125,4.587412357330322,0.45003750920295715,-3.727487564086914
1717012783231277300,2.26627734375,4.341562271118164,0.38403749465942383,-4.025449752807617
1717012783241162200,2.276162353515625,4.0202250480651855,0.4862000048160553,-4.555512428283691
1717012783251047000,2.286046875,3.6030499935150146,0.9044749736785889,-5.387662410736084
1717012783260931800,2.295931884765625,3.1634624004364014,1.283287525177002,-6.443387508392334
1717012783270816800,2.305816650390625,2.5866498947143555,1.3142249584197998,-7.344699859619141
1717012783280701400,2.315701416015625,1.8332874774932861,1.1503249406814575,-7.37137508392334
1717012783290586000,2.325586181640625,1.0903749465942383,1.1662750244140625,-6.71797513961792
1717012783300470800,2.335470703125,0.3359124958515167,0.8449375033378601,-6.294337272644043
1717012783310355700,2.345355712890625,-0.16431249678134918,0.18617500364780426,-6.376287460327148
1717012783320240400,2.355240478515625,-0.5867124795913696,-0.342787504196167,-6.856299877166748
1717012783330125300,2.365125244140625,-1.4360499382019043,-0.6630250215530396,-7.603337287902832
1717012783340010200,2.37501025390625,-2.6034250259399414,-0.8120750188827515,-8.137662887573242
1717012783349895000,2.38489501953125,-3.8048999309539795,-0.7716500163078308,-7.720487594604492
1717012783359779800,2.39477978515625,-4.797787666320801,-1.0089750289916992,-6.251850128173828
1717012783369664800,2.404664794921875,-5.354387283325195,-1.7890124320983887,-4.192512512207031
1717012783379549400,2.414549560546875,-5.544962406158447,-2.6851000785827637,-2.0726749897003174
1717012783389433900,2.424433837890625,-5.623612403869629,-3.2055375576019287,-0.3305499851703644
1717012783399318800,2.43431884765625,-5.721650123596191,-3.2033374309539795,0.7261375188827515
1717012783409203700,2.44420361328125,-5.785449981689453,-2.8468000888824463,1.1529375314712524
1717012783419088400,2.45408837890625,-5.846087455749512,-2.4349875450134277,1.3157374858856201
1717012783428973300,2.463973388671875,-6.054675102233887,-2.2210373878479004,1.47427499294281
1717012783438858000,2.47385791015625,-6.409012317657471,-2.285937547683716,1.7212250232696533
1717012783448742700,2.48374267578125,-6.784662246704102,-2.4520375728607178,2.0532875061035156
1717012783458627600,2.493627685546875,-7.062550067901611,-2.526562452316284,2.3671998977661133
1717012783468512300,2.50351220703125,-6.910337448120117,-2.0625,2.3874125480651855
1717012783478397200,2.513397216796875,-6.598487377166748,-1.4282125234603882,2.268199920654297
1717012783488281900,2.52328173828125,-6.301624774932861,-1.2505625486373901,2.3746249675750732
1717012783498166800,2.533166748046875,-6.070624828338623,-1.1196625232696533,2.545949935913086
1717012783508051700,2.5430517578125,-5.793974876403809,-0.7822374701499939,2.577850103378296
1717012783517936400,2.552936279296875,-5.326749801635742,-0.3405874967575073,2.67368745803833
1717012783527821300,2.5628212890625,-4.765887260437012,0.17544999718666077,2.8589000701904297
1717012783537706000,2.5727060546875,-4.177387714385986,0.8544250130653381,2.9983248710632324
1717012783547590700,2.582590576171875,-3.663412570953369,1.5046625137329102,3.0046498775482178
1717012783557475600,2.5924755859375,-3.309074878692627,1.904787540435791,2.9291625022888184
1717012783567360300,2.6023603515625,-3.0355875492095947,2.237950086593628,2.903587579727173
1717012783577245200,2.6122451171875,-2.722637414932251,2.52628755569458,3.03448748588562
1717012783587129900,2.6221298828125,-2.2789249420166016,2.7381749153137207,3.3015124797821045
1717012783597014800,2.632014892578125,-1.6828625202178955,3.060612440109253,3.591087579727173
1717012783606899500,2.6418994140625,-0.9283999800682068,3.336162567138672,3.785787582397461
1717012783616784400,2.651784423828125,-0.028049999848008156,3.387312412261963,3.837899923324585
1717012783626669300,2.66166943359375,0.8903124928474426,3.264937400817871,3.7698373794555664
1717012783636554000,2.671553955078125,1.5863374471664429,3.221212387084961,3.5271499156951904
1717012783646438700,2.681438720703125,1.9960874319076538,3.5936999320983887,3.0823373794555664
1717012783656323300,2.6913232421875,2.302574872970581,4.446199893951416,2.504425048828125
1717012783666208300,2.701208251953125,2.7047624588012695,5.499724864959717,1.8776999711990356
1717012783676093200,2.71109326171875,3.2146124839782715,6.238237380981445,1.2348874807357788
1717012783685977900,2.720977783203125,3.675374984741211,6.3650126457214355,0.5750250220298767
1717012783695862500,2.730862548828125,3.9967124462127686,5.864787578582764,-0.08579999953508377
1717012783705747500,2.74074755859375,4.190450191497803,4.96663761138916,-0.7126625180244446
1717012783715632400,2.75063232421875,4.319149971008301,4.123762607574463,-1.2713249921798706
1717012783725517000,2.76051708984375,4.534200191497803,3.546949863433838,-1.712975025177002
1717012783735401700,2.770401611328125,4.953437328338623,3.0914125442504883,-2.0450375080108643
1717012783745286400,2.780286376953125,5.480199813842773,2.731712579727173,-2.3014750480651855
1717012783755171300,2.79017138671875,5.86973762512207,2.6210250854492188,-2.4707374572753906
1717012783765056300,2.80005615234375,5.938899993896484,2.7817625999450684,-2.62927508354187
1717012783774941000,2.80994091796875,5.712299823760986,3.1755623817443848,-2.865499973297119
1717012783784825900,2.819825927734375,5.239712238311768,3.658600091934204,-3.1933000087738037
1717012783794710500,2.82971044921875,4.511787414550781,3.7151124477386475,-3.57527494430542
1717012783804595500,2.839595458984375,3.61157488822937,3.022249937057495,-3.942537546157837
1717012783814480100,2.849480224609375,2.737762451171875,1.8931000232696533,-4.327674865722656
1717012783824364800,2.85936474609375,2.099212408065796,0.781000018119812,-4.81401252746582
1717012783834249700,2.869249755859375,1.7927249670028687,-0.014987500384449959,-5.350399971008301
1717012783844134400,2.879134521484375,1.7545000314712524,-0.5119125247001648,-5.661149978637695
1717012783854019300,2.889019287109375,1.7843375205993652,-0.48317500948905945,-5.7228875160217285
1717012783863904000,2.898904052734375,1.5331250429153442,-0.10752499848604202,-5.7985124588012695
1717012783873789000,2.908788818359375,0.7158250212669373,0.008387500420212746,-6.102799892425537
1717012783883673600,2.918673583984375,-0.571862518787384,0.03932499885559082,-6.31564998626709
1717012783893558500,2.92855859375,-1.8979125022888184,-0.11604999750852585,-6.4274373054504395
1717012783903443200,2.938443115234375,-3.0089125633239746,-0.6162750124931335,-6.539087295532227
1717012783913328000,2.948328125,-3.7314748764038086,-1.1547249555587769,-6.2613372802734375
1717012783923212800,2.958212890625,-4.060375213623047,-1.4335750341415405,-5.413237571716309
1717012783933097500,2.968097412109375,-4.245587348937988,-1.466575026512146,-4.395874977111816
1717012783942982400,2.977982421875,-4.453074932098389,-1.331412434577942,-3.654062509536743
1717012783952867000,2.9878671875,-4.688199996948242,-1.1387749910354614,-3.2177748680114746
1717012783962752000,2.997751953125,-4.971312522888184,-0.9323874711990356,-2.8154499530792236
1717012783972637000,3.007636962890625,-5.357687473297119,-0.8322874903678894,-2.219525098800659
1717012783982521300,3.017521240234375,-5.789712429046631,-1.0015499591827393,-1.3213750123977661
1717012783992406300,3.02740625,-6.147212505340576,-1.4187250137329102,-0.20611250400543213
1717012784002291200,3.037291259765625,-6.379312515258789,-1.7411625385284424,0.9751499891281128
1717012784012176000,3.04717578125,-6.470749855041504,-1.7645374536514282,2.067037582397461
1717012784022060500,3.057060546875,-6.337787628173828,-1.6464250087738037,2.889699935913086
1717012784031945500,3.066945556640625,-5.979187488555908,-1.375,3.33451247215271
1717012784041830100,3.076830078125,-5.4405999183654785,-0.9153375029563904,3.5048749446868896
1717012784051715000,3.086715087890625,-4.813875198364258,-0.3778499960899353,3.517662525177002
1717012784061599700,3.096599853515625,-4.210387706756592,0.2106499969959259,3.4483625888824463
1717012784071484400,3.106484375,-3.6953125,0.8959500193595886,3.389925003051758
1717012784081369600,3.11636962890625,-3.2516000270843506,1.5845500230789185,3.424987554550171
1717012784091254000,3.12625390625,-2.8535375595092773,2.1665875911712646,3.6027750968933105
1717012784101139000,3.136138916015625,-2.4756875038146973,2.5444374084472656,3.8773624897003174
1717012784111023600,3.146023681640625,-2.069237470626831,2.623224973678589,4.185912609100342
1717012784120908500,3.155908447265625,-1.622225046157837,2.38700008392334,4.472187519073486
1717012784130793200,3.165793212890625,-1.1731499433517456,1.971887469291687,4.687099933624268
1717012784140678100,3.17567822265625,-0.7325999736785889,1.5569125413894653,4.788300037384033
1717012784150563000,3.18556298828125,-0.2824249863624573,1.3227499723434448,4.766987323760986
1717012784160447700,3.19544775390625,0.1816374957561493,1.3897124528884888,4.636087417602539
1717012784170332400,3.20533251953125,0.6019750237464905,1.7324999570846558,4.421175003051758
1717012784180217300,3.21521728515625,0.9904124736785889,2.1869375705718994,4.135862350463867
1717012784190102000,3.22510205078125,1.4139125347137451,2.633812427520752,3.759112596511841
1717012784199987000,3.234987060546875,1.8609249591827393,3.077662467956543,3.33451247215271
1717012784209871600,3.24487158203125,2.2471625804901123,3.546949863433838,2.9620249271392822
1717012784219756300,3.25475634765625,2.546225070953369,3.90348744392395,2.68111252784729
1717012784229641200,3.26464111328125,2.7537124156951904,3.9854373931884766,2.452312469482422
1717012784239526000,3.27452587890625,2.8740248680114746,3.7820749282836914,2.246887445449829
1717012784249410800,3.284410888671875,2.9123873710632324,3.3276374340057373,2.018087387084961
1717012784259295500,3.29429541015625,2.9187123775482178,2.754124879837036,1.7180625200271606
1717012784269180400,3.304180419921875,2.970824956893921,2.3432750701904297,1.3391125202178955
1717012784279065000,3.314065185546875,3.1039249897003174,2.2666873931884766,0.8453499674797058
1717012784288949800,3.32394970703125,3.334787368774414,2.4582250118255615,0.14932499825954437
1717012784298834700,3.333834716796875,3.6902248859405518,2.817924976348877,-0.7434625029563904
1717012784308719400,3.34371923828125,4.093649864196777,3.151087522506714,-1.6714500188827515
1717012784318604000,3.35360400390625,4.476725101470947,3.2669999599456787,-2.4025375843048096
1717012784328489000,3.363489013671875,4.731100082397461,3.2117249965667725,-2.8026623725891113
1717012784338373600,3.37337353515625,4.692737579345703,3.0307750701904297,-2.9644999504089355
1717012784348258600,3.383258544921875,4.337299823760986,2.6284499168395996,-3.0762875080108643
1717012784358143500,3.3931435546875,3.754162549972534,1.978350043296814,-3.29010009765625
1717012784368028200,3.403028076171875,3.201824903488159,1.341862440109253,-3.684999942779541
1717012784377913000,3.4129130859375,2.928337574005127,0.957687497138977,-4.28202486038208
1717012784387797800,3.4227978515625,2.8538124561309814,0.8822000026702881,-5.099325180053711
1717012784397682400,3.432682373046875,2.862337589263916,0.9439374804496765,-6.023049831390381
1717012784407567000,3.442567138671875,2.854912519454956,1.0385375022888184,-6.756199836730957
1717012784417452000,3.4524521484375,2.664337396621704,1.3514875173568726,-7.168149948120117
1717012784427336700,3.462336669921875,2.1141998767852783,1.7697625160217285,-7.330949783325195
1717012784437221600,3.4722216796875,1.1797499656677246,1.962262511253357,-7.389524936676025
1717012784447106300,3.482106201171875,0.05912499874830246,2.0091500282287598,-7.393650054931641
1717012784456991200,3.4919912109375,-1.0348249673843384,1.8229750394821167,-7.491687297821045
1717012784466876000,3.5018759765625,-1.9904500246047974,1.1321749687194824,-7.778924942016602
1717012784476760600,3.511760498046875,-2.7801125049591064,0.09033749997615814,-7.930037498474121
1717012784486645500,3.5216455078125,-3.4121999740600586,-0.854699969291687,-7.541599750518799
1717012784496530200,3.5315302734375,-3.9496874809265137,-1.4921499490737915,-6.57634973526001
1717012784506414800,3.541414794921875,-4.355175018310547,-1.8837499618530273,-5.323862552642822
1717012784516299800,3.5512998046875,-4.662762641906738,-1.9432874917984009,-3.980762481689453
1717012784526184400,3.561184326171875,-5.035112380981445,-1.5368374586105347,-2.557912588119507
1717012784536069400,3.5710693359375,-5.450224876403809,-0.8749125003814697,-1.1563750505447388
1717012784545954300,3.580954345703125,-5.760974884033203,-0.41401249170303345,0.05252499878406525
1717012784555838700,3.590838623046875,-5.9749250411987305,-0.2204124927520752,1.0114500522613525
1717012784565723600,3.6007236328125,-6.151474952697754,-0.1214125007390976,1.7957500219345093
1717012784575608300,3.6106083984375,-6.229162693023682,-0.09803749620914459,2.3916749954223633
1717012784585493000,3.620492919921875,-6.206887245178223,-0.14904999732971191,2.7704875469207764
1717012784595378000,3.6303779296875,-6.090837478637695,-0.21821250021457672,2.9546000957489014
1717012784605262600,3.6402626953125,-5.890775203704834,-0.24584999680519104,3.01743745803833
1717012784615147500,3.6501474609375,-5.610962390899658,-0.2256374955177307,3.0291249752044678
1717012784625032400,3.660032470703125,-5.249062538146973,-0.18837499618530273,3.01001238822937
1717012784634917000,3.669917236328125,-4.8190999031066895,-0.10752499848604202,2.9503374099731445
1717012784644801800,3.6798017578125,-4.3668622970581055,0.0882750004529953,2.892862558364868
1717012784654686500,3.6896865234375,-3.9368999004364014,0.43834999203681946,2.8705875873565674
1717012784664571100,3.699571044921875,-3.5336124897003174,0.8853625059127808,2.8663249015808105
1717012784674456000,3.7094560546875,-3.132387399673462,1.3429625034332275,2.8737499713897705
1717012784684341000,3.719341064453125,-2.7088875770568848,1.7590374946594238,2.9429125785827637
1717012784694225700,3.7292255859375,-2.2448248863220215,2.0922000408172607,3.135550022125244
1717012784704110300,3.7391103515625,-1.7766374349594116,2.2316250801086426,3.4579875469207764
1717012784713995300,3.748995361328125,-1.306249976158142,2.112412452697754,3.8570125102996826
1717012784723879700,3.758879638671875,-0.8325625061988831,1.8398874998092651,4.24875020980835
1717012784733764600,3.7687646484375,-0.4047999978065491,1.5589749813079834,4.510550022125244
1717012784743649500,3.7786494140625,-0.016362499445676804,1.3386999368667603,4.6179375648498535
1717012784753534200,3.7885341796875,0.33274999260902405,1.291812539100647,4.601025104522705
1717012784763419100,3.798419189453125,0.6253499984741211,1.4557124376296997,4.461599826812744
1717012784773303800,3.8083037109375,0.849887490272522,1.7984999418258667,4.213550090789795
1717012784783188500,3.8181884765625,1.0319374799728394,2.2518374919891357,3.8762624263763428
1717012784793073200,3.8280732421875,1.2159124612808228,2.73075008392334,3.4750375747680664
1717012784802958000,3.8379580078125,1.4341249465942383,3.1798250675201416,3.0482375621795654
1717012784812842800,3.8478427734375,1.695924997329712,3.494837522506714,2.607687473297119
1717012784822727400,3.8577275390625,1.990725040435791,3.6224374771118164,2.160675048828125
1717012784832612400,3.8676123046875,2.3046374320983887,3.5969998836517334,1.7052749395370483
1717012784842497000,3.8774970703125,2.636699914932251,3.473525047302246,1.2115124464035034
1717012784852381700,3.887381591796875,3.0208749771118164,3.287212371826172,0.6825500130653381
1717012784862266400,3.897266357421875,3.439150094985962,3.1138250827789307,0.18562500178813934
1717012784872151300,3.9071513671875,3.8605875968933105,3.0127625465393066,-0.23801249265670776
1717012784882036000,3.917035888671875,4.274462699890137,3.0074000358581543,-0.5817624926567078
1717012784891921000,3.9269208984375,4.6224751472473145,3.0999374389648438,-0.829675018787384
1717012784901805600,3.9368056640625,4.856637477874756,3.2638375759124756,-0.9531499743461609
1717012784911690500,3.9466904296875,4.923737525939941,3.400099992752075,-1.0202499628067017
1717012784921575200,3.9565751953125,4.726837635040283,3.3936374187469482,-1.1585749387741089
1717012784931459800,3.9664599609375,4.290412425994873,3.2254750728607178,-1.4139125347137451
1717012784941344500,3.976344482421875,3.8190624713897705,2.943462371826172,-1.7565624713897705
1717012784951229400,3.9862294921875,3.5199999809265137,2.6380748748779297,-2.2419373989105225
1717012784961114000,3.996114013671875,3.4721500873565674,2.444474935531616,-2.900700092315674
1717012784970999000,4.0059990234375,3.6008498668670654,2.2911624908447266,-3.7041125297546387
1717012784980883700,4.0158837890625,3.8094375133514404,2.031562566757202,-4.58204984664917
1717012784990768400,4.025768310546875,3.914762496948242,1.8633999824523926,-5.487762451171875
1717012785000653300,4.0356533203125,3.6306874752044678,1.9197750091552734,-6.373125076293945
1717012785010538000,4.0455380859375,2.828237533569336,2.066624879837036,-7.153162479400635
1717012785020423000,4.0554228515625,1.612874984741211,2.215674877166748,-7.698074817657471
1717012785030307300,4.065307373046875,0.38266250491142273,2.268749952316284,-7.8960747718811035
1717012785040192300,4.075192138671875,-0.5240125060081482,2.074049949645996,-7.886449813842773
1717012785050077000,4.085076904296875,-1.1635249853134155,1.6153500080108643,-7.885349750518799
1717012785059961900,4.0949619140625,-1.6850625276565552,0.9374749660491943,-8.000300407409668
1717012785069846500,4.104846435546875,-2.2054998874664307,0.1414874941110611,-8.181249618530273
1717012785079731200,4.114731201171875,-2.8780124187469482,-0.5354250073432922,-8.222774505615234
1717012785089616100,4.1246162109375,-3.6761999130249023,-0.8738124966621399,-7.840662479400635
1717012785099500800,4.134500732421875,-4.479612350463867,-0.8801375031471252,-6.902087688446045
1717012785109385500,4.144385498046875,-5.171374797821045,-0.8152375221252441,-5.566412448883057
1717012785119270400,4.1542705078125,-5.651387691497803,-0.8248624801635742,-4.126649856567383
1717012785129155000,4.164155029296875,-5.888712406158447,-0.7992874979972839,-2.768699884414673
1717012785139040000,4.1740400390625,-5.9504499435424805,-0.6279624700546265,-1.5928000211715698
1717012785148924700,4.183924560546875,-5.953612327575684,-0.3235374987125397,-0.654087483882904
1717012785158809300,4.193809326171875,-5.991974830627441,0.09253749996423721,0.07067500054836273
1717012785168694000,4.203694091796875,-6.0526123046875,0.567187488079071,0.6527125239372253
1717012785178579000,4.213578857421875,-6.112150192260742,0.9832624793052673,1.095462441444397
1717012785188463600,4.223463623046875,-6.1590375900268555,1.2471250295639038,1.4370124340057373
1717012785198348300,4.233348388671875,-6.215412616729736,1.401537537574768,1.7594499588012695
1717012785208233000,4.24323291015625,-6.2526750564575195,1.467537522315979,2.097975015640259
1717012785218118000,4.253117919921875,-6.211150169372559,1.469599962234497,2.4586374759674072
1717012785228002800,4.2630029296875,-6.0834126472473145,1.449387550354004,2.8396499156951904
1717012785237887500,4.272887451171875,-5.8503499031066895,1.4132249355316162,3.2174999713897705
1717012785247772200,4.282772216796875,-5.523650169372559,1.356850028038025,3.5718374252319336
1717012785257657000,4.292656982421875,-5.12888765335083,1.358912467956543,3.8847875595092773
1717012785267541500,4.30254150390625,-4.657400131225586,1.4323375225067139,4.103962421417236
1717012785277426400,4.312426513671875,-4.093375205993652,1.5248750448226929,4.189074993133545
1717012785287311000,4.32231103515625,-3.466512441635132,1.635562539100647,4.17312479019165
1717012785297196000,4.332196044921875,-2.8173749446868896,1.7877750396728516,4.0900750160217285
1717012785307080700,4.342080810546875,-2.1862499713897705,2.0134124755859375,3.976224899291992
1717012785316965400,4.35196533203125,-1.6159000396728516,2.292262554168701,3.8783249855041504
1717012785326850000,4.36185009765625,-1.1327250003814697,2.5859625339508057,3.7921125888824463
1717012785336734700,4.371734619140625,-0.7346624732017517,2.894512414932251,3.705899953842163
1717012785346619600,4.38161962890625,-0.38458749651908875,3.2297375202178955,3.650624990463257
1717012785356504300,4.39150439453125,-0.03451250120997429,3.5756874084472656,3.6740000247955322
1717012785366389200,4.40138916015625,0.35186249017715454,3.844912528991699,3.779325008392334
1717012785376274000,4.41127392578125,0.7775624990463257,3.9194374084472656,3.9092624187469482
1717012785386158800,4.421158935546875,1.21274995803833,3.8022875785827637,3.99753737449646
1717012785396043500,4.43104345703125,1.6236000061035156,3.5352625846862793,3.9890124797821045
1717012785405928200,4.44092822265625,1.9810999631881714,3.21598744392395,3.8634750843048096
1717012785415812900,4.450812744140625,2.2748000621795654,2.9647750854492188,3.5963125228881836
1717012785425697500,4.460697509765625,2.563275098800659,2.8828248977661133,3.1833999156951904
1717012785435582500,4.47058251953125,2.882550001144409,2.945662498474121,2.6523749828338623
1717012785445467100,4.480467041015625,3.209249973297119,3.0478250980377197,2.069237470626831
1717012785455352000,4.49035205078125,3.552999973297119,3.0350375175476074,1.4838999509811401
1717012785465236700,4.50023681640625,3.9243874549865723,2.9467625617980957,0.9432500004768372
1717012785475121400,4.510121337890625,4.251087665557861,2.793449878692627,0.40796250104904175
1717012785485006300,4.52000634765625,4.490475177764893,2.5785374641418457,-0.14973749220371246
1717012785494890800,4.529890869140625,4.634162425994873,2.4061124324798584,-0.7254499793052673
1717012785504775700,4.539775634765625,4.7225751876831055,2.3082125186920166,-1.2575750350952148
1717012785514660400,4.549660400390625,4.793799877166748,2.258162498474121,-1.6810749769210815
1717012785524545300,4.559545166015625,4.8757500648498535,2.2390499114990234,-1.9758750200271606
1717012785534430000,4.569429931640625,5.001287460327148,2.202887535095215,-2.116262435913086
1717012785544314600,4.579314697265625,5.151437282562256,2.1634249687194824,-2.0854625701904297
1717012785554199300,4.58919921875,5.2791748046875,2.1432125568389893,-1.9482375383377075
1717012785564084000,4.599083984375,5.356862545013428,2.244412422180176,-1.8119750022888184
1717012785573969000,4.608968994140625,5.327024936676025,2.4380125999450684,-1.8268250226974487
1717012785583853600,4.618853515625,5.095062255859375,2.5583250522613525,-2.0950875282287598
1717012785593738500,4.628738525390625,4.61614990234375,2.4858624935150146,-2.6229500770568848
1717012785603623200,4.638623046875,3.990387439727783,2.098525047302246,-3.359262466430664
1717012785613507800,4.6485078125,3.4167375564575195,1.5313374996185303,-4.183024883270264
1717012785623392500,4.658392578125,2.987874984741211,1.023687481880188,-4.946012496948242
1717012785633277400,4.66827734375,2.7218124866485596,0.7374125123023987,-5.5133376121521
1717012785643162000,4.678162109375,2.6452250480651855,0.7618874907493591,-5.878262519836426
1717012785653046800,4.688046875,2.702699899673462,1.022587537765503,-6.1667375564575195
1717012785662931500,4.697931396484375,2.7803874015808105,1.3642749786376953,-6.533862590789795
1717012785672816400,4.70781640625,2.715487480163574,1.6718624830245972,-7.105312347412109
1717012785682701000,4.717701171875,2.3780624866485596,1.8463499546051025,-7.909824848175049
1717012785692585700,4.727585693359375,1.7821375131607056,1.9857749938964844,-8.77511215209961
1717012785702470700,4.737470703125,0.9861499667167664,2.1804749965667725,-9.513625144958496
1717012785712355000,4.74735498046875,0.08043749630451202,2.285799980163574,-9.99996280670166
1717012785722240000,4.757239990234375,-0.8273375034332275,2.149674892425537,-10.085075378417969
1717012785732124700,4.767124755859375,-1.624424934387207,1.786674976348877,-9.679587364196777
1717012785742009600,4.777009521484375,-2.3034000396728516,1.2876875400543213,-8.718600273132324
1717012785751894300,4.786894287109375,-2.9195375442504883,0.696987509727478,-7.27883768081665
1717012785761779000,4.796779052734375,-3.5091373920440674,0.01691249944269657,-5.620725154876709
1717012785771663600,4.80666357421875,-3.980487585067749,-0.43216249346733093,-3.980762481689453
1717012785781548500,4.816548583984375,-4.309387683868408,-0.49059998989105225,-2.584587574005127
1717012785791433200,4.82643310546875,-4.5190749168396,-0.14904999732971191,-1.5256999731063843
1717012785801318000,4.83631787109375,-4.613812446594238,0.4787749946117401,-0.820187509059906
1717012785811202600,4.84620263671875,-4.632925033569336,1.1556874513626099,-0.4380750060081482
1717012785821087500,4.85608740234375,-4.664824962615967,1.702662467956543,-0.2741749882698059
1717012785830972200,4.86597216796875,-4.714874744415283,2.0623624324798584,-0.16142499446868896
1717012785840857000,4.875857177734375,-4.791462421417236,2.1953248977661133,0.006737499963492155
1717012785850741800,4.88574169921875,-4.913837432861328,2.1485750675201416,0.28022500872612
1717012785860626200,4.895626220703125,-5.050099849700928,2.0272998809814453,0.6527125239372253
1717012785870511000,4.905510986328125,-5.176737308502197,1.8378249406814575,1.0592999458312988
1717012785880395800,4.915395751953125,-5.267212390899658,1.5780874490737915,1.438112497329712
1717012785890280700,4.92528076171875,-5.293749809265137,1.349287509918213,1.7850250005722046
1717012785900165400,4.935165283203125,-5.265012264251709,1.1896499395370483,2.1128249168395996
1717012785910050000,4.945050048828125,-5.208637237548828,1.0588874816894531,2.4044625759124756
1717012785919934700,4.954934814453125,-5.144837379455566,1.042799949645996,2.708750009536743
1717012785929819400,4.9648193359375,-5.07993745803833,1.3121625185012817,3.0971875190734863
1717012785939704000,4.9747041015625,-4.98726224899292,1.6728249788284302,3.5175249576568604
1717012785949589000,4.984589111328125,-4.848937511444092,1.9016250371932983,3.890012502670288
1717012785959473700,4.9944736328125,-4.6755499839782715,1.997462511062622,4.227437496185303
1717012785969358600,5.004358642578125,-4.462699890136719,2.0239999294281006,4.545612335205078
1717012785979243000,5.014242919921875,-4.200900077819824,2.0336248874664307,4.848937511444092
1717012785989127700,5.024127685546875,-3.8944125175476074,2.0686874389648438,5.151162624359131
1717012785999012600,5.0340126953125,-3.535675048828125,2.1315250396728516,5.448024749755859
1717012786008897300,5.043897216796875,-3.1090123653411865,2.2325875759124756,5.702400207519531
1717012786018782200,5.0537822265625,-2.6130499839782715,2.3497374057769775,5.870562553405762
1717012786028666600,5.06366650390625,-2.0510873794555664,2.4826998710632324,5.909887313842773
1717012786038551600,5.073551513671875,-1.4423749446868896,2.636012554168701,5.837562561035156
1717012786048436000,5.08343603515625,-0.8241750001907349,2.7774999141693115,5.687550067901611
1717012786058321000,5.09332080078125,-0.20899999141693115,2.911562442779541,5.4895501136779785
1717012786068205600,5.10320556640625,0.3783999979496002,3.058412551879883,5.2288498878479
1717012786078090500,5.113090576171875,0.9212499856948853,3.2393624782562256,4.8776750564575195
1717012786087975200,5.12297509765625,1.4128124713897705,3.40120005607605,4.418974876403809
1717012786097859800,5.13285986328125,1.8438749313354492,3.400099992752075,3.871999979019165
1717012786107744500,5.14274462890625,2.195050001144409,3.2191500663757324,3.282399892807007
1717012786117629200,5.152629150390625,2.4855875968933105,2.938237428665161,2.67148756980896
1717012786127513900,5.162513916015625,2.747387409210205,2.613600015640259,2.079824924468994
1717012786137398800,5.172398681640625,3.0112500190734863,2.3252625465393066,1.559387445449829
1717012786147283500,5.182283447265625,3.263424873352051,2.146512508392334,1.1082500219345093
1717012786157168000,5.192168212890625,3.4933249950408936,2.1389498710632324,0.6452875137329102
1717012786167052800,5.202052734375,3.712637424468994,2.2763125896453857,0.1120624989271164
1717012786176937500,5.2119375,3.953125,2.453000068664551,-0.4657124876976013
1717012786186822400,5.221822509765625,4.191549777984619,2.547600030899048,-0.9915124773979187
1717012786196707000,5.23170703125,4.370299816131592,2.4817373752593994,-1.378849983215332
1717012786206591700,5.241591796875,4.467100143432617,2.2933623790740967,-1.6076500415802002
1717012786216476700,5.2514765625,4.4830498695373535,2.0825750827789307,-1.6916625499725342
1717012786226361000,5.261361083984375,4.426674842834473,1.8739874362945557,-1.656599998474121
1717012786236245800,5.271245849609375,4.322312355041504,1.6409250497817993,-1.572587490081787
1717012786246130700,5.281130615234375,4.237199783325195,1.3323750495910645,-1.5171749591827393
1717012786256015400,5.291015380859375,4.230875015258789,0.9736375212669373,-1.5129125118255615
1717012786265900000,5.300900146484375,4.289450168609619,0.671412467956543,-1.5395874977111816
1717012786275785000,5.310784912109375,4.341562271118164,0.5224999785423279,-1.572587490081787
1717012786285669600,5.320669677734375,4.232937335968018,0.5692499876022339,-1.6363874673843384
1717012786295554300,5.33055419921875,3.8647124767303467,0.7374125123023987,-1.823662519454956
1717012786305439000,5.34043896484375,3.27305006980896,0.8384749889373779,-2.265312433242798
1717012786315323600,5.35032373046875,2.6133248805999756,0.847000002861023,-2.9963998794555664
1717012786325208300,5.360208251953125,2.1546249389648438,0.8810999989509583,-3.92864990234375
1717012786335093200,5.37009326171875,2.0365123748779297,0.9971500039100647,-4.934324741363525
1717012786344978000,5.37997802734375,2.1843249797821045,1.117324948310852,-5.863412380218506
1717012786354862600,5.389862548828125,2.4611124992370605,1.1620124578475952,-6.477487564086914
1717012786364747500,5.39974755859375,2.6239125728607178,1.217424988746643,-6.855199813842773
1717012786374632000,5.4096318359375,2.455749988555908,1.5100250244140625,-7.1084747314453125
1717012786384516600,5.4195166015625,1.8694499731063843,1.9772499799728394,-7.378799915313721
1717012786394401500,5.429401611328125,0.9807875156402588,2.594487428665161,-7.8204498291015625
1717012786404286200,5.4392861328125,0.12402500212192535,3.2415623664855957,-8.332362174987793
1717012786414171000,5.4491708984375,-0.5282750129699707,3.515049934387207,-8.781437873840332
1717012786424055800,5.459055908203125,-1.0487124919891357,3.244724988937378,-8.950699806213379
1717012786433940500,5.4689404296875,-1.5541625022888184,2.540174961090088,-8.584537506103516
1717012786443825000,5.478824951171875,-2.1341373920440674,1.6600375175476074,-7.6608123779296875
1717012786453709800,5.488709716796875,-2.7832748889923096,0.7448375225067139,-6.443387508392334
1717012786463594500,5.498594482421875,-3.4431374073028564,-0.04688749834895134,-5.16738748550415
1717012786473479200,5.508479248046875,-4.035900115966797,-0.48537498712539673,-3.9520249366760254
1717012786483364000,5.518364013671875,-4.436025142669678,-0.5906999707221985,-2.886812448501587
1717012786493248800,5.528248779296875,-4.556337356567383,-0.3895374834537506,-1.964187502861023
1717012786503133400,5.538133544921875,-4.495699882507324,0.007424999959766865,-1.2297999858856201
1717012786513018000,5.54801806640625,-4.370025157928467,0.4129124879837036,-0.7222874760627747
1717012786522902800,5.55790283203125,-4.255074977874756,0.7768750190734863,-0.3689124882221222
1717012786532787500,5.567787353515625,-4.163637638092041,1.0876250267028809,-0.07301250100135803
1717012786542672100,5.577672119140625,-4.080587387084961,1.377062439918518,0.2642749845981598
1717012786552556800,5.587556884765625,-4.035900115966797,1.617550015449524,0.6740249991416931
1717012786562441500,5.59744140625,-4.038099765777588,1.7239749431610107,1.1188374757766724
1717012786572326400,5.607326416015625,-4.068900108337402,1.6803874969482422,1.575337529182434
1717012786582211000,5.617211181640625,-4.111525058746338,1.617550015449524,2.0532875061035156
1717012786592095700,5.627095703125,-4.171062469482422,1.6249749660491943,2.523674964904785
1717012786601980700,5.636980712890625,-4.237062454223633,1.628137469291687,2.9290249347686768
1717012786611865000,5.646864990234375,-4.3008623123168945,1.6079249382019043,3.2802000045776367
1717012786621749800,5.656749755859375,-4.345550060272217,1.5888124704360962,3.595212459564209
1717012786631634700,5.666634765625,-4.3562750816345215,1.5749249458312988,3.8603124618530273
1717012786641519400,5.676519287109375,-4.305124759674072,1.5856499671936035,4.0550127029418945
1717012786651404000,5.686404052734375,-4.192375183105469,1.6047624349594116,4.162537574768066
1717012786661288700,5.696288818359375,-3.999737501144409,1.627174973487854,4.159237384796143
1717012786671173600,5.706173583984375,-3.736837387084961,1.7143499851226807,4.067800045013428
1717012786681058300,5.716058349609375,-3.4463000297546387,1.8814125061035156,3.941162586212158
1717012786690942700,5.725942626953125,-3.1483373641967773,2.0697875022888184,3.852750062942505
1717012786700827600,5.73582763671875,-2.867424964904785,2.260362386703491,3.8581125736236572
1717012786710712300,5.74571240234375,-2.580049991607666,2.4359500408172607,3.97086238861084
1717012786720597000,5.755596923828125,-2.262974977493286,2.5902249813079834,4.16349983215332
1717012786730482000,5.76548193359375,-1.9053374528884888,2.7350125312805176,4.404125213623047
1717012786740366600,5.77536669921875,-1.5168999433517456,2.8989124298095703,4.6424126625061035
1717012786750251300,5.785251220703125,-1.119937539100647,3.07450008392334,4.821162700653076
1717012786760136000,5.795135986328125,-0.7220125198364258,3.2265748977661133,4.930887699127197
1717012786770020600,5.8050205078125,-0.3100624978542328,3.3320374488830566,4.998950004577637
1717012786779905300,5.8149052734375,0.10491249710321426,3.3543124198913574,5.0521626472473145
1717012786789790200,5.824790283203125,0.506137490272522,3.2393624782562256,5.076637268066406
1717012786799675000,5.8346748046875,0.8914124965667725,3.0105624198913574,5.044737339019775
1717012786809559600,5.8445595703125,1.2553750276565552,2.751924991607666,4.949999809265137
1717012786819444000,5.85444384765625,1.6160374879837036,2.542375087738037,4.790362358093262
1717012786829329000,5.864328857421875,1.990725040435791,2.449699878692627,4.5445122718811035
1717012786839213600,5.874213623046875,2.375999927520752,2.4359500408172607,4.195537567138672
1717012786849098200,5.88409814453125,2.748349905014038,2.3784749507904053,3.742062568664551
1717012786858983200,5.893983154296875,3.0868749618530273,2.2422125339508057,3.204712390899658
1717012786868867600,5.90386767578125,3.385937452316284,2.0527374744415283,2.6353249549865723
1717012786878752500,5.91375244140625,3.661487579345703,1.869724988937378,2.0787250995635986
1717012786888637200,5.92363720703125,3.9073374271392822,1.645187497138977,1.5285874605178833
1717012786898521900,5.93352197265625,4.1116623878479,1.3142249584197998,0.99013751745224
1717012786908406500,5.943406494140625,4.324512481689453,0.9215250015258789,0.5335000157356262
1717012786918291200,5.953291259765625,4.602262496948242,0.5097125172615051,0.20996250212192535
1717012786928176000,5.963176025390625,4.923600196838379,0.1765500009059906,0.0004124999977648258
1717012786938060500,5.973060546875,5.239712238311768,-0.01924999989569187,-0.15289999544620514
1717012786947945200,5.9829453125,5.527087688446045,-0.0010999999940395355,-0.2849000096321106
1717012786957830100,5.992830078125,5.734574794769287,0.28091248869895935,-0.45938751101493835
1717012786967714800,6.00271484375,5.77183723449707,0.7598249912261963,-0.7232499718666077
1717012786977599500,6.012599609375,5.597350120544434,1.3259124755859375,-1.0872124433517456
1717012786987484200,6.022484130859375,5.215237617492676,1.8856749534606934,-1.5151125192642212
1717012786997369000,6.032369140625,4.685312271118164,2.284837484359741,-1.9630874395370483
1717012787007253800,6.042253662109375,4.106299877166748,2.534950017929077,-2.354687452316284
1717012787017138200,6.05213818359375,3.61680006980896,2.7147998809814453,-2.6346375942230225
1717012787027023000,6.062023193359375,3.3156750202178955,2.773237466812134,-2.8080248832702637
1717012787036907800,6.07190771484375,3.2155749797821045,2.682762384414673,-2.872925043106079
1717012787046792400,6.08179248046875,3.230562448501587,2.4997498989105225,-2.865499973297119
1717012787056677400,6.091677490234375,3.2698874473571777,2.181575059890747,-2.9092249870300293
1717012787066562000,6.10156201171875,3.2613625526428223,1.6824499368667603,-3.1315624713897705
1717012787076446700,6.11144677734375,3.1740500926971436,1.1844249963760376,-3.571150064468384
1717012787086331100,6.1213310546875,3.0134499073028564,0.9055749773979187,-4.186187267303467
1717012787096216000,6.131216064453125,2.7568750381469727,0.8768374919891357,-4.9354248046875
1717012787106100700,6.141100830078125,2.4173874855041504,1.0461000204086304,-5.716562271118164
1717012787115985400,6.1509853515625,2.0374748706817627,1.3696374893188477,-6.4103875160217285
1717012787125870000,6.1608701171875,1.5767124891281128,1.7473499774932861,-6.990362644195557
1717012787135754800,6.170754638671875,1.018875002861023,2.1810250282287598,-7.417025089263916
1717012787145639400,6.180639404296875,0.4016374945640564,2.621574878692627,-7.660675048828125
1717012787155524000,6.190524169921875,-0.23691250383853912,2.9493749141693115,-7.725712299346924
1717012787165409000,6.200408935546875,-0.8701000213623047,3.0398499965667725,-7.635237693786621
1717012787175293700,6.210293701171875,-1.5053499937057495,2.8483123779296875,-7.462812423706055
1717012787185178400,6.220178466796875,-2.1418375968933105,2.412024974822998,-7.2243876457214355
1717012787195062800,6.230062744140625,-2.8122875690460205,1.8532249927520752,-6.877474784851074
1717012787204947700,6.23994775390625,-3.4975874423980713,1.372249960899353,-6.325137615203857
1717012787214832400,6.249832275390625,-4.101075172424316,1.026437520980835,-5.5738372802734375
1717012787224717000,6.259717041015625,-4.560737609863281,0.8113874793052673,-4.682012557983398
1717012787234601700,6.269601806640625,-4.914112567901611,0.7730249762535095,-3.6826624870300293
1717012787244486400,6.279486328125,-5.190762519836426,0.7891125082969666,-2.6834499835968018
1717012787254371000,6.28937109375,-5.350399971008301,0.7539125084877014,-1.7447375059127808
1717012787264255700,6.299255859375,-5.340775012969971,0.7294374704360962,-0.8093249797821045
1717012787274140700,6.309140625,-5.171649932861328,0.7581750154495239,0.07603749632835388
1717012787284025300,6.319025390625,-4.897062301635742,0.8358625173568726,0.7911750078201294
1717012787293909800,6.32890966796875,-4.5980000495910645,1.0146124362945557,1.2988250255584717
1717012787303794400,6.33879443359375,-4.324512481689453,1.2445124387741089,1.6159000396728516
1717012787313679400,6.348679443359375,-4.134075164794922,1.4286249876022339,1.7925875186920166
1717012787323564000,6.35856396484375,-4.061612606048584,1.5520999431610107,1.9416375160217285
1717012787333448700,6.36844873046875,-4.073299884796143,1.6181000471115112,2.175800085067749
1717012787343333000,6.3783330078125,-4.117024898529053,1.631850004196167,2.5386624336242676
1717012787353218000,6.388218017578125,-4.142462253570557,1.5978875160217285,3.0005249977111816
1717012787363102700,6.398102783203125,-4.142462253570557,1.522262454032898,3.470912456512451
1717012787372987400,6.4079873046875,-4.115924835205078,1.4339874982833862,3.8869874477386475
1717012787382872300,6.417872314453125,-4.040299892425537,1.3392499685287476,4.220012664794922
1717012787392757000,6.427757080078125,-3.891387462615967,1.2476749420166016,4.435062408447266
1717012787402641700,6.4376416015625,-3.658324956893921,1.2157750129699707,4.525537490844727
1717012787412526000,6.447526123046875,-3.331624984741211,1.3509374856948853,4.535025119781494
1717012787422411000,6.457410888671875,-2.9400250911712646,1.5978875160217285,4.486074924468994
1717012787432295700,6.467295654296875,-2.515287399291992,1.892687439918518,4.3764872550964355
1717012787442180400,6.477180419921875,-2.081199884414673,2.2395999431610107,4.2242751121521
1717012787452065000,6.48706494140625,-1.6586624383926392,2.624875068664551,4.089112281799316
1717012787461949700,6.49694970703125,-1.2436875104904175,2.985537528991699,4.008262634277344
1717012787471834400,6.50683447265625,-0.8339374661445618,3.2623250484466553,3.9806249141693115
1717012787481719000,6.516718994140625,-0.46681249141693115,3.3963875770568848,3.9912123680114746
1717012787491603700,6.526603759765625,-0.14533749222755432,3.392124891281128,4.017887592315674
1717012787501488400,6.53648828125,0.15798750519752502,3.292025089263916,4.034937381744385
1717012787511373000,6.546373046875,0.4665375053882599,3.124962568283081,4.03383731842041
1717012787521258000,6.556258056640625,0.7507500052452087,2.9642250537872314,3.9945125579833984
1717012787531142400,6.566142333984375,1.0157124996185303,2.8557374477386475,3.915724992752075
1717012787541027300,6.57602734375,1.289199948310852,2.784374952316284,3.794450044631958
1717012787550912000,6.585912109375,1.558424949645996,2.687575101852417,3.6124000549316406
1717012787560796700,6.595796630859375,1.8020750284194946,2.579087495803833,3.3613250255584717
1717012787570681300,6.605681396484375,2.0330750942230225,2.4257750511169434,3.0420498847961426
1717012787580566000,6.61556591796875,2.253350019454956,2.167137384414673,2.6610374450683594
1717012787590450700,6.62545068359375,2.452312469482422,1.8394750356674194,2.2023375034332275
1717012787600335400,6.63533544921875,2.631200075149536,1.5190999507904053,1.6691124439239502
1717012787610220000,6.645219970703125,2.830162525177002,1.278612494468689,1.0976624488830566
1717012787620104700,6.655104736328125,3.063225030899048,1.178512454032898,0.562375009059906
1717012787629989600,6.66498974609375,3.304812431335449,1.195562481880188,0.09941250085830688
1717012787639874300,6.674874267578125,3.5888874530792236,1.280674934387207,-0.2825624942779541
1717012787649758700,6.6847587890625,3.898674964904785,1.4297250509262085,-0.5869874954223633
1717012787659643400,6.694643310546875,4.148650169372559,1.648900032043457,-0.8573125004768372
1717012787669528300,6.7045283203125,4.275287628173828,1.918125033378601,-1.137125015258789
1717012787679413000,6.7144130859375,4.278587341308594,2.132075071334839,-1.446774959564209
1717012787689297700,6.724297607421875,4.179587364196777,2.1576499938964844,-1.7565624713897705
1717012787699182000,6.73418212890625,3.9837875366210938,2.0117623805999756,-2.0204250812530518
1717012787709067000,6.74406689453125,3.7305123805999756,1.7670124769210815,-2.2056374549865723
1717012787718951700,6.75395166015625,3.4781999588012695,1.4095125198364258,-2.296112537384033
1717012787728836400,6.76383642578125,3.2792375087738037,0.9561749696731567,-2.249224901199341
1717012787738721000,6.773720947265625,3.1557624340057373,0.47932499647140503,-2.068274974822998
1717012787748605700,6.783605712890625,3.1058499813079834,0.05692499876022339,-1.8044124841690063
1717012787758490400,6.793490478515625,3.0962250232696533,-0.254925012588501,-1.5244624614715576
1717012787768375000,6.803375,3.083437442779541,-0.3932499885559082,-1.3116124868392944
1717012787778259700,6.813259765625,3.0504374504089355,-0.34113749861717224,-1.184012532234192
1717012787788144400,6.823144287109375,2.968487501144409,-0.2059749960899353,-1.1829124689102173
1717012787798029300,6.833029296875,2.784374952316284,-0.13461250066757202,-1.3425500392913818
1717012787807913700,6.842913818359375,2.4875125885009766,-0.14533749222755432,-1.6149375438690186
1717012787817798400,6.85279833984375,2.0990750789642334,-0.15908749401569366,-1.9342124462127686
1717012787827683000,6.86268310546875,1.7095375061035156,-0.15166249871253967,-2.2609124183654785
1717012787837568000,6.872568115234375,1.4297250509262085,-0.15496249496936798,-2.5503499507904053
1717012787847452700,6.88245263671875,1.3019875288009644,-0.1985500007867813,-2.755774974822998
1717012787857337000,6.892337158203125,1.3179374933242798,-0.2815999984741211,-2.87072491645813
1717012787867221800,6.9022216796875,1.4009875059127808,-0.37193748354911804,-2.943049907684326
1717012787877106700,6.912106689453125,1.4136375188827515,-0.36451250314712524,-3.0420498847961426
1717012787886991400,6.921991455078125,1.2317249774932861,-0.16664999723434448,-3.2016875743865967
1717012787896876000,6.9318759765625,0.8529124855995178,0.18988749384880066,-3.4592249393463135
1717012787906760400,6.941760498046875,0.3665750026702881,0.5772249698638916,-3.880662441253662
1717012787916645400,6.951645263671875,-0.1060125008225441,0.8784874677658081,-4.471362590789795
1717012787926529800,6.96152978515625,-0.46035000681877136,1.0572375059127808,-5.135349750518799
1717012787936414700,6.971414794921875,-0.6678375005722046,1.0423874855041504,-5.785587310791016
1717012787946299400,6.98129931640625,-0.7742624878883362,0.8007999658584595,-6.3282999992370605
1717012787956184000,6.99118408203125,-0.8467249870300293,0.49101248383522034,-6.614574909210205
1717012787966068700,7.00106884765625,-0.9498500227928162,0.2942500114440918,-6.530562400817871
1717012787975953400,7.010953369140625,-1.1914374828338623,0.34952500462532043,-6.065537452697754
1717012787985838000,7.020838134765625,-1.5756125450134277,0.6496874690055847,-5.350399971008301
1717012787995722800,7.03072265625,-2.0044748783111572,0.9763875007629395,-4.64585018157959
1717012788005607400,7.040607421875,-2.4366374015808105,1.103024959564209,-4.162674903869629
1717012788015492400,7.050492431640625,-2.8538124561309814,0.9593374729156494,-3.8966124057769775
1717012788025376800,7.060376708984375,-3.226300001144409,0.6741625070571899,-3.6944875717163086
1717012788035261400,7.070261474609375,-3.5550625324249268,0.32298749685287476,-3.4293875694274902
1717012788045146000,7.08014599609375,-3.832812547683716,-0.05169999971985817,-3.0240375995635986
1717012788055030800,7.09003076171875,-4.036174774169922,-0.29961249232292175,-2.436500072479248
1717012788064915500,7.09991552734375,-4.146725177764893,-0.30387499928474426,-1.7096749544143677
1717012788074800400,7.10980029296875,-4.166937351226807,-0.20913749933242798,-0.9700624942779541
1717012788084684800,7.119684814453125,-4.1287126541137695,-0.06338749825954437,-0.27197501063346863
1717012788094569500,7.129569580078125,-4.0530877113342285,0.1909874975681305,0.39957499504089355
1717012788104454100,7.1394541015625,-3.9584875106811523,0.4624125063419342,0.9869750142097473
1717012788114338800,7.1493388671875,-3.866912364959717,0.6582124829292297,1.4339874982833862
1717012788124223700,7.1592236328125,-3.7710750102996826,0.7911750078201294,1.731950044631958
1717012788134108400,7.1691083984375,-3.671112537384033,0.9220749735832214,1.9140000343322754
1717012788143992800,7.178992919921875,-3.5838000774383545,1.0646624565124512,2.0224874019622803
1717012788153877500,7.18887744140625,-3.509274959564209,1.205187439918518,2.0916500091552734
1717012788163762200,7.19876220703125,-3.4337875843048096,1.3019875288009644,2.132075071334839
1717012788173647000,7.208647216796875,-3.373149871826172,1.3659249544143677,2.1533875465393066
1717012788183531800,7.21853173828125,-3.3231000900268555,1.456262469291687,2.201237440109253
1717012788193416400,7.22841650390625,-3.265625,1.5276249647140503,2.3065624237060547
1717012788203301000,7.238301025390625,-3.171987533569336,1.4914624691009521,2.4492874145507812
1717012788213185800,7.248185791015625,-3.0186750888824463,1.4254624843597412,2.621574878692627
1717012788223070500,7.258070556640625,-2.8421249389648438,1.4573625326156616,2.836625099182129
1717012788232955100,7.267955078125,-2.6739625930786133,1.5723124742507935,3.0782124996185303
1717012788242839600,7.277839599609375,-2.5174875259399414,1.723425030708313,3.2953250408172607
1717012788252724500,7.287724365234375,-2.345062494277954,1.8947499990463257,3.472975015640259
1717012788262609000,7.29760888671875,-2.1396374702453613,2.073499917984009,3.611299991607666
1717012788272493800,7.307493896484375,-1.908774971961975,2.218287467956543,3.70493745803833
1717012788282378500,7.31737841796875,-1.6597625017166138,2.3002374172210693,3.74646258354187
1717012788292263000,7.327262939453125,-1.3990625143051147,2.318387508392334,3.72941255569458
1717012788302147800,7.33714794921875,-1.1489499807357788,2.2906124591827393,3.6656124591827393
1717012788312032300,7.3470322265625,-0.9318374991416931,2.208662509918213,3.593287467956543
1717012788321917000,7.3569169921875,-0.7497875094413757,2.1289124488830566,3.5645499229431152
1717012788331801900,7.3668017578125,-0.5869874954223633,2.1235499382019043,3.5815999507904053
1717012788341686500,7.3766865234375,-0.42102500796318054,2.1821250915527344,3.6070375442504883
1717012788351571200,7.3865712890625,-0.25286251306533813,2.2470250129699707,3.6220250129699707
1717012788361455600,7.39645556640625,-0.08786249905824661,2.291712522506714,3.593287467956543
1717012788371340300,7.40634033203125,0.07809999585151672,2.3278748989105225,3.4942874908447266
1717012788381225200,7.41622509765625,0.26647499203681946,2.342862606048584,3.3207623958587646
1717012788391109600,7.426109619140625,0.48358750343322754,2.318387508392334,3.0919625759124756
1717012788400994600,7.43599462890625,0.7294374704360962,2.269437551498413,2.847212553024292
1717012788410879000,7.44587890625,0.9880750179290771,2.21512508392334,2.6098875999450684
1717012788420763600,7.455763671875,1.2827374935150146,2.1480250358581543,2.3725624084472656
1717012788430648300,7.4656484375,1.6361124515533447,2.0458624362945557,2.1405999660491943
1717012788440533200,7.475533203125,2.0427000522613525,1.9032750129699707,1.926650047302246
1717012788450417700,7.485417724609375,2.452312469482422,1.696887493133545,1.7137999534606934
1717012788460302600,7.495302490234375,2.813112497329712,1.4690500497817993,1.4914624691009521
1717012788470187000,7.50518701171875,3.0993874073028564,1.296625018119812,1.2604625225067139
1717012788480071700,7.51507177734375,3.305912494659424,1.16902494430542,0.9732249975204468
1717012788489956600,7.52495654296875,3.472975015640259,1.0614999532699585,0.6007375121116638
1717012788499841000,7.534841064453125,3.6421000957489014,1.0338624715805054,0.20157499611377716
1717012788509725700,7.5447255859375,3.8464250564575195,1.1263999938964844,-0.14217500388622284
1717012788519610400,7.5546103515625,4.056112289428711,1.2467124462127686,-0.39544999599456787
1717012788529495000,7.5644951171875,4.232800006866455,1.2988250255584717,-0.5400999784469604
1717012788539379700,7.574379638671875,4.347750186920166,1.2445124387741089,-0.5422999858856201
1717012788549264400,7.584264404296875,4.365762710571289,1.0551749467849731,-0.3975124955177307
1717012788559149000,7.594149169921875,4.2828497886657715,0.767799973487854,-0.14643749594688416
1717012788569033700,7.60403369140625,4.1061625480651855,0.455949991941452,0.18672500550746918
1717012788578918400,7.61391845703125,3.8293750286102295,0.21230000257492065,0.5273125171661377
1717012788588803000,7.623802978515625,3.5144999027252197,0.05472499877214432,0.7496500015258789
1717012788598687700,7.633687744140625,3.236612558364868,-0.0835999995470047,0.7688999772071838
1717012788608572700,7.64357275390625,3.0546998977661133,-0.18892499804496765,0.6059625148773193
1717012788618457000,7.65345703125,2.972749948501587,-0.18039999902248383,0.2909500002861023
1717012788628341800,7.663341796875,2.940850019454956,-0.07617499679327011,-0.17723749577999115
1717012788638226400,7.673226318359375,2.965324878692627,0.06751249730587006,-0.783887505531311
1717012788648111000,7.683111083984375,3.076012372970581,0.26551249623298645,-1.536287546157837
1717012788657995800,7.692995849609375,3.3153998851776123,0.5113624930381775,-2.373800039291382
1717012788667880700,7.702880615234375,3.5985124111175537,0.8347625136375427,-3.203887462615967
1717012788677765000,7.71276513671875,3.7592499256134033,1.287137508392334,-3.9839248657226562
1717012788687649800,7.72264990234375,3.632612466812134,1.806475043296814,-4.744850158691406
1717012788697534500,7.732534423828125,3.1579625606536865,2.2609124183654785,-5.564212322235107
1717012788707419100,7.742419189453125,2.457674980163574,2.503462553024292,-6.49866247177124
1717012788717303800,7.7523037109375,1.7605500221252441,2.5460875034332275,-7.43723726272583
1717012788727188500,7.7621884765625,1.222100019454956,2.5088250637054443,-8.21521282196045
1717012788737073200,7.7720732421875,0.81454998254776,2.55145001411438,-8.671712875366211
1717012788746957800,7.781957763671875,0.40700000524520874,2.7088875770568848,-8.710075378417969
1717012788756842500,7.791842529296875,-0.05389999970793724,2.804724931716919,-8.373749732971191
1717012788766727200,7.80172705078125,-0.5391374826431274,2.641787528991699,-7.849050045013428
1717012788776611800,7.81161181640625,-1.0701625347137451,2.2364375591278076,-7.360650062561035
1717012788786496300,7.821496337890625,-1.6735124588012695,1.8033125400543213,-6.924362659454346
1717012788796381000,7.831380859375,-2.4099624156951904,1.4850000143051147,-6.3698248863220215
1717012788806265900,7.841265869140625,-3.2251999378204346,1.2359875440597534,-5.562150001525879
1717012788816150500,7.851150634765625,-3.94569993019104,1.0146124362945557,-4.43093729019165
1717012788826035200,7.86103515625,-4.466000080108643,0.7592750191688538,-3.0527749061584473
1717012788835919600,7.870919677734375,-4.752274990081787,0.42941248416900635,-1.6629250049591064
1717012788845804300,7.88080419921875,-4.849212646484375,0.07397499680519104,-0.5230500102043152
1717012788855689200,7.890689208984375,-4.835324764251709,-0.170912504196167,0.279262512922287
1717012788865574000,7.900573974609375,-4.769324779510498,-0.1985500007867813,0.805062472820282
1717012788875458600,7.91045849609375,-4.699062347412109,-0.13255000114440918,1.0965625047683716
1717012788885343000,7.920343017578125,-4.633200168609619,-0.02928750030696392,1.2434124946594238
1717012788895227600,7.9302275390625,-4.553312301635742,0.14409999549388885,1.3424124717712402
1717012788905112300,7.9401123046875,-4.443725109100342,0.28146249055862427,1.4126750230789185
1717012788914997000,7.9499970703125,-4.306362628936768,0.3708375096321106,1.4840375185012817
1717012788924881700,7.959881591796875,-4.150024890899658,0.4954124987125397,1.6159000396728516
1717012788934766300,7.969766357421875,-3.985024929046631,0.6506500244140625,1.8202250003814697
1717012788944651000,7.979651123046875,-3.817962408065796,0.7986000180244446,2.0554873943328857
1717012788954535700,7.98953564453125,-3.6646499633789062,0.9359624981880188,2.273562431335449
1717012788964420400,7.99942041015625,-3.525362491607666,1.0956000089645386,2.460974931716919
1717012788974305000,8.009304931640624,-3.390199899673462,1.2583999633789062,2.631200075149536
1717012788984189700,8.019189697265626,-3.2570998668670654,1.3839374780654907,2.785475015640259
1717012788994074400,8.029074462890625,-3.105987548828125,1.472350001335144,2.923799991607666
1717012789003959000,8.038958984375,-2.928337574005127,1.5318875312805176,3.0420498847961426
1717012789013843700,8.04884375,-2.7260749340057373,1.5808374881744385,3.142012596130371
1717012789023728400,8.058728271484375,-2.4781625270843506,1.622362494468689,3.2452750205993652
1717012789033613000,8.068613037109374,-2.187624931335449,1.6596249341964722,3.3974874019622803
1717012789043497500,8.07849755859375,-1.890625,1.7095375061035156,3.6294500827789307
1717012789053382100,8.088382080078125,-1.5926624536514282,1.7191624641418457,3.8838250637054443
1717012789063266800,8.098266845703124,-1.2969000339508057,1.697849988937378,4.095574855804443
1717012789073151700,8.10815185546875,-1.0234124660491943,1.7021124362945557,4.257275104522705
1717012789083036400,8.118036376953125,-0.8009374737739563,1.7606874704360962,4.362599849700928
1717012789092920800,8.1279208984375,-0.6051374673843384,1.8990124464035034,4.3829498291015625
1717012789102805500,8.137805419921875,-0.39544999599456787,2.0916500091552734,4.305262565612793
1717012789112690200,8.147690185546875,-0.15812499821186066,2.3375000953674316,4.127474784851074
1717012789122574800,8.157574951171876,0.10257499665021896,2.589674949645996,3.898674964904785
1717012789132459500,8.16745947265625,0.3760625123977661,2.7163124084472656,3.655987501144409
1717012789142344200,8.17734423828125,0.6623374819755554,2.6226749420166016,3.4186625480651855
1717012789152228900,8.187228759765626,0.9486125111579895,2.404599905014038,3.2313873767852783
1717012789162113300,8.19711328125,1.2115124464035034,2.1511874198913574,3.104749917984009
1717012789171998200,8.206998291015625,1.4275250434875488,1.8979125022888184,2.982374906539917
1717012789181883000,8.2168828125,1.606274962425232,1.7308499813079834,2.7897374629974365
1717012789191767600,8.226767578125,1.808537483215332,1.7564250230789185,2.4672999382019043
1717012789201652200,8.23665234375,2.0703375339508057,1.9234875440597534,2.026750087738037
1717012789211536600,8.24653662109375,2.3533124923706055,2.0501248836517334,1.528725028038025
1717012789221421300,8.25642138671875,2.6226749420166016,2.023587465286255,1.0146124362945557
1717012789231306000,8.266305908203124,2.865225076675415,1.8532249927520752,0.5187875032424927
1717012789241191000,8.27619091796875,3.0621249675750732,1.647937536239624,0.05898749828338623
1717012789251075300,8.286075439453125,3.1972875595092773,1.5085124969482422,-0.3559874892234802
1717012789260960000,8.2959599609375,3.260124921798706,1.5063124895095825,-0.7391999959945679
1717012789270844700,8.3058447265625,3.235650062561035,1.6372125148773193,-1.1031625270843506
1717012789280729300,8.315729248046875,3.0791749954223633,1.8958499431610107,-1.4341249465942383
1717012789290614000,8.325614013671874,2.790837526321411,2.21512508392334,-1.7161375284194946
1717012789300498700,8.335498779296875,2.482150077819824,2.439662456512451,-1.9427374601364136
1717012789310383000,8.345383056640625,2.2490875720977783,2.516249895095825,-2.111999988555908
1717012789320267800,8.355267822265626,2.0957748889923096,2.4481875896453857,-2.1917500495910645
1717012789330152700,8.365152587890625,2.000075101852417,2.186387538909912,-2.2193875312805176
1717012789340037400,8.375037353515625,1.967074990272522,1.7617875337600708,-2.220487594604492
1717012789349921800,8.384921875,2.0256500244140625,1.2764124870300293,-2.1290500164031982
1717012789359806500,8.394806396484375,2.144862413406372,0.8390250205993652,-2.0024125576019287
1717012789369691100,8.404691162109375,2.238499879837036,0.4538874924182892,-1.9438375234603882
1717012789379575800,8.414575927734376,2.309725046157837,0.08662500232458115,-2.0374748706817627
1717012789389460500,8.42446044921875,2.3746249675750732,-0.16238750517368317,-2.2534875869750977
1717012789399345200,8.43434521484375,2.37146258354187,-0.16238750517368317,-2.50992488861084
1717012789409229800,8.444229736328126,2.257612466812134,0.04619999974966049,-2.799499988555908
1717012789419114500,8.454114501953125,2.0820250511169434,0.2782999873161316,-3.1666250228881836
1717012789428999200,8.463999267578124,1.9426000118255615,0.36547499895095825,-3.629587411880493
1717012789438883600,8.473883544921875,1.873437523841858,0.2623499929904938,-4.131875038146973
1717012789448768300,8.483768310546875,1.8202250003814697,0.06544999778270721,-4.530900001525879
1717012789458653000,8.49365283203125,1.7351125478744507,-0.09212499856948853,-4.737424850463867
1717012789468537600,8.50353759765625,1.5797375440597534,-0.2176624983549118,-4.815112590789795
1717012789478422300,8.51342236328125,1.3498375415802002,-0.35708749294281006,-4.857600212097168
1717012789488307000,8.523306884765624,1.0656249523162842,-0.4529249966144562,-4.92579984664917
1717012789498191600,8.533191650390625,0.7092249989509583,-0.4763000011444092,-5.107712268829346
1717012789508076000,8.543075927734375,0.2303124964237213,-0.5358374714851379,-5.4940876960754395
1717012789517961000,8.5529609375,-0.3806000053882599,-0.7444249987602234,-6.033637523651123
1717012789527845600,8.562845703125,-1.0510499477386475,-1.0296000242233276,-6.425237655639648
1717012789537730000,8.57272998046875,-1.705549955368042,-1.1808500289916992,-6.309187412261963
1717012789547614700,8.58261474609375,-2.3111000061035156,-1.1467499732971191,-5.63337516784668
1717012789557499400,8.59249951171875,-2.739962577819824,-0.9871125221252441,-4.633062362670898
1717012789567384000,8.602384033203125,-2.9506125450134277,-0.7955750226974487,-3.7146999835968018
1717012789577268700,8.612268798828126,-2.9761874675750732,-0.5858874917030334,-3.0729875564575195
1717012789587153400,8.6221533203125,-2.921875,-0.2517625093460083,-2.6365625858306885
1717012789597037800,8.632037841796874,-2.92407488822937,0.1494625061750412,-2.2428998947143555
1717012789606922800,8.6419228515625,-3.1028249263763428,0.39214998483657837,-1.788462519645691
1717012789616807400,8.651807373046875,-3.442312479019165,0.4101625084877014,-1.2062875032424927
1717012789626691800,8.66169189453125,-3.8233249187469482,0.23361249268054962,-0.49431249499320984
1717012789636576500,8.671576416015625,-4.157450199127197,-0.05486249923706055,0.2303124964237213
1717012789646461200,8.681461181640625,-4.388312339782715,-0.3357749879360199,0.8188124895095825
1717012789656345900,8.691345947265624,-4.4830498695373535,-0.5475249886512756,1.1987249851226807
1717012789666230500,8.70123046875,-4.437262535095215,-0.6710000038146973,1.4106124639511108
1717012789676115200,8.711115234375,-4.296875,-0.6518874764442444,1.5254249572753906
1717012789685999600,8.72099951171875,-4.115924835205078,-0.5124624967575073,1.5936249494552612
1717012789695884300,8.73088427734375,-3.9403374195098877,-0.27197501063346863,1.624424934387207
1717012789705769000,8.74076904296875,-3.783862590789795,0.06324999779462814,1.6553624868392944
1717012789715654000,8.75065380859375,-3.6498000621795654,0.43463748693466187,1.7362124919891357
1717012789725538300,8.760538330078125,-3.5391125679016113,0.785812497138977,1.891587495803833
1717012789735423000,8.770423095703125,-3.457162380218506,1.0774500370025635,2.124650001525879
1717012789745307600,8.7803076171875,-3.3987250328063965,1.295662522315979,2.394974946975708
1717012789755192300,8.7901923828125,-3.3379499912261963,1.4393500089645386,2.6738250255584717
1717012789765076700,8.80007666015625,-3.25600004196167,1.5074124336242676,2.925999879837036
1717012789774961400,8.80996142578125,-3.1421499252319336,1.5085124969482422,3.1334874629974365
1717012789784846000,8.81984619140625,-2.9815499782562256,1.5042500495910645,3.298487424850464
1717012789794730800,8.829730712890624,-2.769662380218506,1.5105749368667603,3.4134373664855957
1717012789804615400,8.839615478515626,-2.5174875259399414,1.5148375034332275,3.472975015640259
1717012789814500000,8.8495,-2.233412504196167,1.5404125452041626,3.496350049972534
1717012789824384800,8.859384765625,-1.9289875030517578,1.5936249494552612,3.5059750080108643
1717012789834269400,8.86926953125,-1.5798749923706055,1.6809375286102295,3.527287483215332
1717012789844154000,8.879154052734375,-1.1808500289916992,1.8042750358581543,3.554924964904785
1717012789854038800,8.889038818359374,-0.765874981880188,1.949062466621399,3.5782999992370605
1717012789863923200,8.898923095703125,-0.3922874927520752,2.117224931716919,3.6101999282836914
1717012789873808000,8.908807861328125,-0.10064999759197235,2.3055999279022217,3.642237424850464
1717012789883692500,8.918692626953124,0.11852499842643738,2.503462553024292,3.669874906539917
1717012789893577200,8.9285771484375,0.28132501244544983,2.6992623805999756,3.686924934387207
1717012789903462000,8.9384619140625,0.41538751125335693,2.8579375743865967,3.666712522506714
1717012789913346600,8.9483466796875,0.5527499914169312,2.944149971008301,3.571974992752075
1717012789923231200,8.958231201171875,0.7220125198364258,2.9419500827789307,3.392124891281128
1717012789933115600,8.96811572265625,0.927299976348877,2.8164124488830566,3.1750125885009766
1717012789943000600,8.97800048828125,1.1720499992370605,2.5885748863220215,2.968487501144409
1717012789952885200,8.98788525390625,1.4445749521255493,2.245924949645996,2.798262596130371
1717012789962770000,8.99777001953125,1.734012484550476,1.807574987411499,2.6684625148773193
1717012789972654300,9.007654296875,2.0021374225616455,1.3253624439239502,2.5460875034332275
1717012789982539000,9.0175390625,2.2554125785827637,0.8529124855995178,2.3725624084472656
1717012789992423700,9.027423583984374,2.5290374755859375,0.469837486743927,2.132075071334839
1717012790002308400,9.037308349609376,2.823699951171875,0.24626250565052032,1.8480000495910645
1717012790012193000,9.047193115234375,3.100487470626831,0.16967499256134033,1.5318875312805176
1717012790022077700,9.05707763671875,3.350600004196167,0.18672500550746918,1.2285624742507935
1717012790031962000,9.066962158203125,3.549562454223633,0.31872498989105225,1.0125499963760376
1717012790041846800,9.0768466796875,3.65378737449646,0.6252124905586243,0.8944374918937683
1717012790051731500,9.0867314453125,3.6548874378204346,1.0168124437332153,0.8305000066757202
1717012790061616000,9.0966162109375,3.548462390899658,1.372249960899353,0.7358999848365784
1717012790071500800,9.106500732421875,3.3378124237060547,1.5839999914169312,0.5495874881744385
1717012790081385200,9.11638525390625,3.0643250942230225,1.6383124589920044,0.3111625015735626
1717012790091270100,9.126270263671875,2.813112497329712,1.5999499559402466,0.0728750005364418
1717012790101154600,9.136154541015625,2.653475046157837,1.464787483215332,-0.15592500567436218
1717012790111039500,9.14603955078125,2.607687473297119,1.3030874729156494,-0.38266250491142273
1717012790120924000,9.155923828125,2.6598000526428223,1.1402875185012817,-0.6157249808311462
1717012790130808600,9.16580859375,2.7684249877929688,0.9763875007629395,-0.8710625171661377
1717012790140693200,9.175693359375,2.850374937057495,0.850849986076355,-1.1658624410629272
1717012790150578000,9.185577880859375,2.823699951171875,0.7688999772071838,-1.528725028038025
1717012790160462600,9.195462646484375,2.7417500019073486,0.7103250026702881,-1.9321500062942505
1717012790170347300,9.20534716796875,2.7109498977661133,0.7262749671936035,-2.3024375438690186
1717012790180231700,9.215231689453125,2.726900100708008,0.8102874755859375,-2.5898125171661377
1717012790190116400,9.225116455078124,2.6864750385284424,0.8912749886512756,-2.824937582015991
1717012790200001000,9.2350009765625,2.552412509918213,0.9092875123023987,-3.0537374019622803
1717012790209885700,9.2448857421875,2.3416249752044678,0.877387523651123,-3.322000026702881
1717012790219770000,9.25477001953125,2.0607125759124756,0.8848124742507935,-3.665750026702881
1717012790229654800,9.26465478515625,1.7605500221252441,0.9444875121116638,-4.1042375564575195
1717012790239539500,9.27453955078125,1.5105749368667603,0.9912375211715698,-4.635262489318848
1717012790249424400,9.28442431640625,1.3316874504089355,1.0231374502182007,-5.266250133514404
1717012790259309000,9.29430908203125,1.177412509918213,0.9860125184059143,-6.005862236022949
1717012790269193500,9.304193359375,0.9539750218391418,0.7891125082969666,-6.780674934387207
1717012790279078100,9.314078125,0.6037625074386597,0.5772249698638916,-7.402174949645996
1717012790288962800,9.323962890625,0.12278749793767929,0.48785001039505005,-7.725712299346924
1717012790298847500,9.333847412109375,-0.43697500228881836,0.5486249923706055,-7.689549922943115
1717012790308732000,9.34373193359375,-0.9552124738693237,0.7422249913215637,-7.291487693786621
1717012790318616600,9.353616455078125,-1.3468124866485596,0.99013751745224,-6.662562370300293
1717012790328501200,9.363501220703125,-1.5991250276565552,1.137125015258789,-6.071862697601318
1717012790338386000,9.373385986328126,-1.7300249338150024,1.1615999937057495,-5.687687397003174
1717012790348270600,9.3832705078125,-1.8279249668121338,1.0785499811172485,-5.488725185394287
1717012790358155000,9.393155029296874,-2.0311501026153564,0.7826499938964844,-5.345037460327148
1717012790368040000,9.4030400390625,-2.3823249340057373,0.36451250314712524,-5.032225131988525
1717012790377924400,9.41292431640625,-2.862337589263916,-0.014437500387430191,-4.3894124031066895
1717012790387809000,9.42280908203125,-3.3742499351501465,-0.2400749921798706,-3.450700044631958
1717012790397693700,9.432693603515625,-3.779599905014038,-0.3485625088214874,-2.394012451171875
1717012790407578400,9.442578369140625,-4.01170015335083,-0.4071374833583832,-1.4159749746322632
1717012790417462800,9.452462890625,-4.097912311553955,-0.3656125068664551,-0.5955125093460083
1717012790427347500,9.462347412109375,-4.092549800872803,-0.21230000257492065,0.07713750004768372
1717012790437232400,9.472232421875,-4.0530877113342285,0.0015124999918043613,0.6059625148773193
1717012790447117000,9.482116943359374,-4.026549816131592,0.202674999833107,0.9721249938011169
1717012790457001500,9.49200146484375,-4.01170015335083,0.36024999618530273,1.2339249849319458
1717012790466886100,9.50188623046875,-4.036174774169922,0.48262500762939453,1.4510375261306763
1717012790476770800,9.511770751953126,-4.103137493133545,0.5677375197410583,1.657425045967102
1717012790486655500,9.521655517578125,-4.183987617492676,0.6389625072479248,1.8904874324798584
1717012790496540200,9.5315400390625,-4.286149978637695,0.730537474155426,2.1533875465393066
1717012790506424600,9.541424560546876,-4.381987571716309,0.7774249911308289,2.4289374351501465
1717012790516309200,9.551309326171875,-4.414987564086914,0.7581750154495239,2.676987409591675
1717012790526194000,9.56119384765625,-4.3723626136779785,0.7401624917984009,2.8950624465942383
1717012790536078600,9.57107861328125,-4.2542500495910645,0.7507500052452087,3.0782124996185303
1717012790545963000,9.580962890625,-4.0701375007629395,0.7570750117301941,3.190962553024292
1717012790555847700,9.59084765625,-3.8413374423980713,0.7997000217437744,3.222862482070923
1717012790565732400,9.600732421875,-3.589162588119507,0.9220749735832214,3.1994874477386475
1717012790575617000,9.610616943359375,-3.3336875438690186,1.0913374423980713,3.114374876022339
1717012790585501700,9.620501708984374,-3.0931999683380127,1.3381500244140625,2.9940624237060547
1717012790595386400,9.630386474609375,-2.8931374549865723,1.7117375135421753,2.9419500827789307
1717012790605270800,9.640270751953125,-2.7325375080108643,2.141700029373169,3.014275074005127
1717012790615155500,9.650155517578124,-2.5653374195098877,2.503462553024292,3.1675875186920166
1717012790625040100,9.6600400390625,-2.3355751037597656,2.7589375972747803,3.3346500396728516
1717012790634924500,9.669924560546875,-1.9577250480651855,2.968625068664551,3.4868624210357666
1717012790644809200,9.679809326171876,-1.4298624992370605,3.124962568283081,3.593287467956543
1717012790654694000,9.68969384765625,-0.8573125004768372,3.200587511062622,3.645400047302246
1717012790664578600,9.69957861328125,-0.34540000557899475,3.249537467956543,3.669874906539917
1717012790674463200,9.709463134765626,0.055687498301267624,3.2899625301361084,3.6645123958587646
1717012790684347600,9.71934765625,0.3526875078678131,3.283637523651123,3.5655124187469482
1717012790694232600,9.729232666015625,0.582587480545044,3.2506375312805176,3.3272249698638916
1717012790704117000,9.739116943359376,0.7869125008583069,3.198387384414673,2.9567999839782715
1717012790714001700,9.749001708984375,0.9912375211715698,3.1026875972747803,2.50992488861084
1717012790723886300,9.75888623046875,1.2157750129699707,2.9356250762939453,2.066075086593628
1717012790733770800,9.768770751953125,1.490362524986267,2.7237374782562256,1.7010124921798706
1717012790743655700,9.77865576171875,1.817062497138977,2.516249895095825,1.4573625326156616
1717012790753540400,9.788540283203124,2.1447250843048096,2.2789249420166016,1.3221999406814575
1717012790763425000,9.798425048828125,2.4363625049591064,2.0458624362945557,1.2370874881744385
1717012790773309400,9.808309326171875,2.6918375492095947,1.883062481880188,1.1349250078201294
1717012790783194000,9.818194091796874,2.9280624389648438,1.8053749799728394,0.9571374654769897
1717012790793078800,9.828078857421875,3.1536998748779297,1.7638499736785889,0.683650016784668
1717012790802963500,9.83796337890625,3.3207623958587646,1.7479000091552734,0.3558500111103058
1717012790812848000,9.84784814453125,3.3941874504089355,1.8138999938964844,0.035612501204013824
1717012790822732500,9.857732666015625,3.393087387084961,1.9245874881744385,-0.254925012588501
1717012790832617200,9.8676171875,3.3378124237060547,1.975600004196167,-0.524150013923645
1717012790842502000,9.877501953125,3.240875005722046,1.957587480545044,-0.7827875018119812
1717012790852386600,9.887386474609375,3.1377499103546143,1.8522624969482422,-0.9956374764442444
1717012790862271000,9.89727099609375,3.0993874073028564,1.641474962234497,-1.1116875410079956
1717012790872155600,9.90715576171875,3.1483373641967773,1.4126750230789185,-1.1308000087738037
1717012790882040300,9.917040283203125,3.229187488555908,1.2200374603271484,-1.0764875411987305
1717012790891925000,9.926925048828124,3.3079750537872314,1.0720875263214111,-0.9882124662399292
1717012790901809700,9.9368095703125,3.340975046157837,0.9220749735832214,-0.9307374954223633
1717012790911694000,9.946694091796875,3.2547624111175537,0.7401624917984009,-0.9392625093460083
1717012790921578800,9.956578857421874,3.01001238822937,0.5378999710083008,-1.025475025177002
1717012790931463400,9.96646337890625,2.6651625633239746,0.35694998502731323,-1.1871750354766846
1717012790941348000,9.97634814453125,2.3203125,0.2516250014305115,-1.4170750379562378
1717012790951232800,9.986232666015624,2.0638749599456787,0.2250874936580658,-1.7022500038146973
1717012790961117200,9.9961171875,2.013824939727783,0.17077499628067017,-2.008737564086914
1717012790971001900,10.006001953125,2.1543500423431396,0.06324999779462814,-2.279062509536743
1717012790980886500,10.015886474609376,2.3331000804901123,-0.020762499421834946,-2.425912380218506
1717012790990771200,10.025771240234375,2.4395248889923096,-0.05912499874830246,-2.460012435913086
1717012791000656000,10.03565576171875,2.440624952316284,-0.0494999997317791,-2.4791250228881836
1717012791010540300,10.045540283203126,2.2895123958587646,0.0611874982714653,-2.5547499656677246
1717012791020425000,10.055425048828125,1.9446624517440796,0.25382500886917114,-2.7431249618530273
1717012791030309600,10.0653095703125,1.437150001525879,0.4006749987602234,-3.0857748985290527
1717012791040194300,10.0751943359375,0.8996624946594238,0.42721250653266907,-3.560425043106079
1717012791050078700,10.08507861328125,0.508062481880188,0.3133625090122223,-4.06793737411499
1717012791059963400,10.09496337890625,0.3675374984741211,0.05898749828338623,-4.495837688446045
1717012791069848000,10.10484814453125,0.4483875036239624,-0.254925012588501,-4.736324787139893
1717012791079732500,10.114732421875,0.6208124756813049,-0.5284125208854675,-4.721475124359131
1717012791089617400,10.124617431640624,0.7144500017166138,-0.6337375044822693,-4.513850212097168
1717012791099501800,10.134501708984375,0.6080250144004822,-0.48688748478889465,-4.2967376708984375
1717012791109386500,10.144386474609375,0.30153748393058777,-0.1260875016450882,-4.237199783325195
1717012791119271200,10.154271240234374,-0.14959999918937683,0.3665750026702881,-4.424475193023682
1717012791129155800,10.16415576171875,-0.7540500164031982,0.730537474155426,-4.9002251625061035
1717012791139040300,10.174040283203125,-1.4298624992370605,0.7401624917984009,-5.50151252746582
1717012791148925000,10.183925048828126,-1.992787480354309,0.44852501153945923,-5.855849742889404
1717012791158809600,10.1938095703125,-2.4238500595092773,-0.013337500393390656,-5.730312347412109
1717012791168694300,10.2036943359375,-2.713287591934204,-0.5092999935150146,-5.127924919128418
1717012791178579000,10.213578857421876,-2.834699869155884,-0.8901749849319458,-4.2542500495910645
1717012791188463400,10.22346337890625,-2.8421249389648438,-1.0892750024795532,-3.4284250736236572
1717012791198348000,10.23334814453125,-2.786712408065796,-1.0168124437332153,-2.8495500087738037
1717012791208232700,10.243232666015626,-2.7537124156951904,-0.6613749861717224,-2.512125015258789
1717012791218117400,10.253117431640625,-2.813387393951416,0.02502499893307686,-2.2364375591278076
1717012791228001800,10.263001708984374,-2.9623000621795654,0.8933374881744385,-1.8672499656677246
1717012791237886500,10.272886474609376,-3.143249988555908,1.5797375440597534,-1.3925999402999878
1717012791247771100,10.282771240234375,-3.3199374675750732,1.8235249519348145,-0.8456249833106995
1717012791257655800,10.29265576171875,-3.4721500873565674,1.7595875263214111,-0.2250874936580658
1717012791267540200,10.302540283203125,-3.547637462615967,1.5509999990463257,0.4496249854564667
1717012791277425000,10.3124248046875,-3.564687490463257,1.3010250329971313,1.0774500370025635
1717012791287309600,10.3223095703125,-3.557262420654297,1.1274999380111694,1.6021499633789062
1717012791297194200,10.3321943359375,-3.528524875640869,1.03496253490448,2.0150625705718994
1717012791307079000,10.342078857421875,-3.4721500873565674,0.9732249975204468,2.3300750255584717
1717012791316963300,10.35196337890625,-3.407249927520752,0.9242749810218811,2.5737249851226807
1717012791326848000,10.361847900390625,-3.366687536239624,0.8998000025749207,2.7962000370025635
1717012791336732700,10.371732666015625,-3.356100082397461,0.9359624981880188,3.0227999687194824
1717012791346617300,10.381617431640626,-3.3614625930786133,1.0168124437332153,3.2419750690460205
1717012791356502000,10.391501953125,-3.3464748859405518,1.120074987411499,3.433650016784668
1717012791366386700,10.40138671875,-3.3050875663757324,1.2265000343322754,3.5921874046325684
1717012791376271000,10.41127099609375,-3.245412588119507,1.3084499835968018,3.728450059890747
1717012791386155800,10.42115576171875,-3.1699249744415283,1.3583624362945557,3.8667750358581543
1717012791396040400,10.43104052734375,-3.0826125144958496,1.4095125198364258,4.02421236038208
1717012791405925000,10.440925048828126,-2.9932374954223633,1.4478750228881836,4.178487300872803
1717012791415809800,10.450809814453125,-2.8910748958587646,1.4126750230789185,4.336062431335449
1717012791425694200,10.460694091796874,-2.776124954223633,1.3221999406814575,4.47548770904541
1717012791435579000,10.470578857421875,-2.633537530899048,1.238187551498413,4.546712398529053
1717012791445463600,10.480463623046875,-2.420687437057495,1.1977624893188477,4.544650077819824
1717012791455348000,10.490347900390624,-2.1546249389648438,1.2498749494552612,4.506287574768066
1717012791465233000,10.50023291015625,-1.8620250225067139,1.4031875133514404,4.457337379455566
1717012791475117300,10.510117431640625,-1.545912504196167,1.6372125148773193,4.394637584686279
1717012791485002000,10.520001953125,-1.2064249515533447,1.8958499431610107,4.295637607574463
1717012791494886700,10.52988671875,-0.866937518119812,2.100174903869629,4.171062469482422
1717012791504771300,10.539771240234375,-0.5550875067710876,2.19807505607605,4.01458740234375
1717012791514655700,10.54965576171875,-0.2741749882698059,2.1852874755859375,3.7965123653411865
1717012791524540400,10.55954052734375,-0.035750001668930054,2.1639750003814697,3.4804000854492188
1717012791534425000,10.569425048828125,0.17063750326633453,2.2481250762939453,3.0962250232696533
1717012791544309800,10.579309814453126,0.39627498388290405,2.3938748836517334,2.7057249546051025
1717012791554194400,10.5891943359375,0.637862503528595,2.5355000495910645,2.2928125858306885
1717012791564078800,10.599078857421874,0.898562490940094,2.753575086593628,1.8713749647140503
1717012791573963500,10.608963623046876,1.202987551689148,3.0420498847961426,1.4892624616622925
1717012791583848200,10.61884814453125,1.523224949836731,3.281437397003174,1.1562374830245972
1717012791593732900,10.62873291015625,1.8458000421524048,3.4154999256134033,0.8709250092506409
1717012791603617300,10.6386171875,2.1682374477386475,3.4251248836517334,0.6432250142097473
1717012791613502000,10.648501953125,2.4832499027252197,3.2953250408172607,0.4474250078201294
1717012791623386600,10.65838671875,2.798262596130371,3.0707874298095703,0.2451625019311905
1717012791633271300,10.668271240234375,3.094024896621704,2.7930374145507812,0.020624998956918716
1717012791643156000,10.678156005859375,3.3111374378204346,2.499199867248535,-0.2176624983549118
1717012791653040400,10.688040283203126,3.444237470626831,2.220487594604492,-0.4347749948501587
1717012791662925000,10.697925048828125,3.5336124897003174,1.9969124794006348,-0.6040375232696533
1717012791672809500,10.7078095703125,3.6133625507354736,1.7553249597549438,-0.7073000073432922
1717012791682694100,10.717694091796876,3.6645123958587646,1.4999874830245972,-0.7764624953269958
1717012791692578800,10.727578857421875,3.7240500450134277,1.2828749418258667,-0.8721625208854675
1717012791702463200,10.737463134765624,3.845324993133545,1.0498124361038208,-1.0137875080108643
1717012791712348000,10.747347900390626,4.00496244430542,0.7614749670028687,-1.1734249591827393
1717012791722232600,10.757232666015625,4.113587379455566,0.5358374714851379,-1.2819124460220337
1717012791732117200,10.7671171875,4.083749771118164,0.4092000126838684,-1.3084499835968018
1717012791742002000,10.777001953125,3.864574909210205,0.3517250120639801,-1.296762466430664
1717012791751886300,10.78688623046875,3.496350049972534,0.38788750767707825,-1.3180749416351318
1717012791761771000,10.79677099609375,3.1196000576019287,0.5113624930381775,-1.4511749744415283
1717012791771655700,10.80665576171875,2.8843374252319336,0.6263124942779541,-1.7426749467849731
1717012791781540400,10.816540283203125,2.8641250133514404,0.6517499685287476,-2.1566874980926514
1717012791791424800,10.8264248046875,3.0227999687194824,0.544362485408783,-2.58774995803833
1717012791801309400,10.836309326171875,3.145174980163574,0.2877874970436096,-2.9356250762939453
1717012791811194000,10.846194091796875,3.0046498775482178,-0.023924998939037323,-3.1814749240875244
1717012791821078500,10.85607861328125,2.5821125507354736,-0.2367749959230423,-3.3188374042510986
1717012791830963500,10.86596337890625,2.0085999965667725,-0.30277499556541443,-3.3752124309539795
1717012791840848000,10.875847900390625,1.4370124340057373,-0.17723749577999115,-3.4210000038146973
1717012791850732500,10.885732666015626,1.0114500522613525,0.1568875014781952,-3.5199999809265137
1717012791860617200,10.8956171875,0.8017625212669373,0.5857499837875366,-3.7679123878479004
1717012791870501600,10.905501708984374,0.7485499978065491,0.8998000025749207,-4.122250080108643
1717012791880386000,10.915385986328126,0.7496500015258789,1.0168124437332153,-4.385149955749512
1717012791890271000,10.92527099609375,0.7006999850273132,0.9860125184059143,-4.3745622634887695
1717012791900155600,10.93515576171875,0.5293750166893005,0.8327000141143799,-4.054187297821045
1717012791910040000,10.9450400390625,0.21216249465942383,0.5773624777793884,-3.5444750785827637
1717012791919924700,10.9549248046875,-0.20391249656677246,0.2708750069141388,-3.0463125705718994
1717012791929809200,10.96480908203125,-0.6316750049591064,-0.015399999916553497,-2.797300100326538
1717012791939693800,10.97469384765625,-1.053112506866455,-0.2591874897480011,-2.8814499378204346
1717012791949578500,10.98457861328125,-1.462862491607666,-0.46777498722076416,-3.19742488861084
1717012791959463000,10.994462890625,-1.7682499885559082,-0.6571124792098999,-3.512437582015991
1717012791969347600,11.00434765625,-1.9269249439239502,-0.7423624992370605,-3.650899887084961
1717012791979232300,11.014232177734375,-2.0343124866485596,-0.7306749820709229,-3.6157000064849854
1717012791989117000,11.024116943359376,-2.1685125827789307,-0.7625749707221985,-3.4901623725891113
1717012791999001600,11.034001708984375,-2.3333749771118164,-0.7710999846458435,-3.3646249771118164
1717012792008886000,11.043885986328124,-2.531374931335449,-0.6593124866485596,-3.3475749492645264
1717012792018770700,11.053770751953126,-2.7559125423431396,-0.42625001072883606,-3.4210000038146973
1717012792028655400,11.0636552734375,-2.9825124740600586,-0.1069749966263771,-3.4964873790740967
1717012792038539800,11.073539794921874,-3.1879374980926514,0.22082500159740448,-3.4284250736236572
1717012792048424400,11.083424560546876,-3.3529374599456787,0.4092000126838684,-3.0900375843048096
1717012792058309000,11.09330908203125,-3.508312463760376,0.3984749913215637,-2.474862575531006
1717012792068193800,11.10319384765625,-3.6562623977661133,0.18466250598430634,-1.649037480354309
1717012792078078200,11.113078125,-3.8159000873565674,-0.19318750500679016,-0.7870500087738037
1717012792087963000,11.122962890625,-3.9989125728607178,-0.5858874917030334,-0.10917499661445618
1717012792097847300,11.132847412109374,-4.168037414550781,-0.7561125159263611,0.3218874931335449
1717012792107732200,11.142732177734375,-4.276662349700928,-0.6337375044822693,0.5814874768257141
1717012792117616600,11.15261669921875,-4.3150248527526855,-0.3059374988079071,0.7869125008583069
1717012792127501000,11.1625009765625,-4.318187713623047,-0.018699999898672104,1.0060875415802002
1717012792137385700,11.1723857421875,-4.3234124183654785,0.08882500231266022,1.2573000192642212
1717012792147270400,11.1822705078125,-4.366037368774414,0.09624999761581421,1.529687523841858
1717012792157155000,11.192155029296876,-4.421450138092041,0.030249999836087227,1.797950029373169
1717012792167039500,11.20203955078125,-4.476725101470947,-0.007974999956786633,2.02771258354187
1717012792176924200,11.211924072265624,-4.518249988555908,0.09624999761581421,2.1884500980377197
1717012792186808800,11.221808837890626,-4.419250011444092,0.38362500071525574,2.2650375366210938
1717012792196693200,11.231693359375,-4.150024890899658,0.8273375034332275,2.235337495803833
1717012792206578200,11.241578125,-3.786062479019165,1.2743500471115112,2.1405999660491943
1717012792216462600,11.251462646484375,-3.338087558746338,1.6787375211715698,2.041599988937378
1717012792226347300,11.26134716796875,-2.884612560272217,2.0629124641418457,1.9564875364303589
1717012792236232000,11.27123193359375,-2.4685375690460205,2.409825086593628,1.8979125022888184
1717012792246116400,11.281116455078125,-2.1045749187469482,2.7578375339508057,1.9106999635696411
1717012792256001000,11.2910009765625,-1.805512547492981,3.031325101852417,2.009700059890747
1717012792265885400,11.300885498046876,-1.6054500341415405,3.1792750358581543,2.169337511062622
1717012792275770400,11.310770263671875,-1.5054874420166016,3.22189998626709,2.3545498847961426
1717012792285654800,11.32065478515625,-1.4702874422073364,3.110112428665161,2.5577750205993652
1717012792295539200,11.330539306640626,-1.5225374698638916,2.8759500980377197,2.7791500091552734
1717012792305424000,11.340423828125,-1.6458749771118164,2.6951375007629395,3.016474962234497
1717012792315308500,11.35030859375,-1.7342875003814697,2.642887592315674,3.260124921798706
1717012792325193200,11.360193115234376,-1.7109124660491943,2.6951375007629395,3.483562469482422
1717012792335077600,11.37007763671875,-1.5331250429153442,2.842949867248535,3.649662494659424
1717012792344962300,11.37996240234375,-1.1819499731063843,3.0856375694274902,3.6784000396728516
1717012792354847000,11.389846923828125,-0.7178875207901001,3.335749864578247,3.534712553024292
1717012792364731600,11.399731689453125,-0.29864999651908875,3.502812385559082,3.2091124057769775
1717012792374616000,11.409615966796874,-0.052799999713897705,3.516700029373169,2.7035250663757324
1717012792384500700,11.419500732421875,0.008937500417232513,3.423062562942505,2.1267125606536865
1717012792394385400,11.429385498046875,-0.017737500369548798,3.298487424850464,1.6297874450683594
1717012792404270000,11.43927001953125,-0.04853750020265579,3.1792750358581543,1.3116124868392944
1717012792414154500,11.449154541015625,-0.07837499678134918,3.110112428665161,1.1477124691009521
1717012792424039000,11.459038818359375,-0.07301250100135803,3.1132750511169434,1.0561374425888062
1717012792433923800,11.468923828125,0.03341250121593475,3.1952250003814697,0.9688249826431274
1717012792443808300,11.478808349609375,0.2217874974012375,3.218600034713745,0.8241750001907349
1717012792453693000,11.48869287109375,0.47286251187324524,2.9121124744415283,0.6496874690055847
1717012792463577600,11.49857763671875,0.7559750080108643,2.5088250637054443,0.44536250829696655
1717012792473462000,11.5084619140625,1.0240999460220337,2.259812593460083,0.20803749561309814
1717012792483346700,11.5183466796875,1.2209999561309814,2.1331748962402344,-0.020762499421834946
1717012792493231400,11.5282314453125,1.345574975013733,2.0629124641418457,-0.2250874936580658
1717012792503116000,11.538115966796875,1.4508999586105347,1.9448000192642212,-0.4241875112056732
1717012792513000400,11.54800048828125,1.5189625024795532,1.6861624717712402,-0.6338750123977661
1717012792522885000,11.557885009765625,1.5456374883651733,1.312712550163269,-0.8710625171661377
1717012792532769800,11.567769775390625,1.5595250129699707,0.868862509727478,-1.109487533569336
1717012792542654000,11.577654052734376,1.548799991607666,0.3932499885559082,-1.303225040435791
1717012792552539000,11.587538818359375,1.4966875314712524,0.03987500071525574,-1.4128124713897705
1717012792562423300,11.59742333984375,1.438112497329712,-0.037812501192092896,-1.4191374778747559
1717012792572308200,11.60730810546875,1.4286249876022339,0.1377750039100647,-1.3766499757766724
1717012792582192400,11.6171923828125,1.5157999992370605,0.507099986076355,-1.3393875360488892
1717012792592077000,11.6270771484375,1.724387526512146,0.9391250014305115,-1.3382874727249146
1717012792601961700,11.636961669921876,2.007499933242798,1.2233375310897827,-1.387237548828125
1717012792611846400,11.646846435546875,2.260775089263916,1.3371875286102295,-1.479912519454956
1717012792621730800,11.656730712890624,2.4395248889923096,1.2817749977111816,-1.6416125297546387
1717012792631615500,11.666615478515626,2.506624937057495,1.1317625045776367,-1.8513000011444092
1717012792641500200,11.676500244140625,2.3703625202178955,1.0828125476837158,-2.047100067138672
1717012792651384800,11.686384765625,2.0703375339508057,1.1966625452041626,-2.1907875537872314
1717012792661269200,11.696269287109375,1.7562874555587769,1.4106124639511108,-2.2705373764038086
1717012792671153700,11.706153564453125,1.5200624465942383,1.6511000394821167,-2.2599499225616455
1717012792681038300,11.716038330078124,1.4125374555587769,1.7106374502182007,-2.1917500495910645
1717012792690923000,11.725923095703125,1.482800006866455,1.436187505722046,-2.1225874423980713
1717012792700807700,11.7358076171875,1.6691124439239502,1.0594375133514404,-2.030050039291382
1717012792710692000,11.745692138671876,1.8116999864578247,0.784850001335144,-1.8672499656677246
1717012792720576800,11.75557666015625,1.8297125101089478,0.6645374894142151,-1.6160374879837036
1717012792730461400,11.76546142578125,1.7297500371932983,0.5645750164985657,-1.2904374599456787
1717012792740346000,11.77534619140625,1.5030125379562378,0.24213749170303345,-1.008424997329712
1717012792750230500,11.78523046875,1.1412500143051147,-0.3007124960422516,-0.8934749960899353
1717012792760115200,11.795115234375,0.7166500091552734,-0.8817874789237976,-0.9552124738693237
1717012792770000000,11.804999755859376,0.48785001039505005,-1.3360874652862549,-1.1701250076293945
1717012792779884500,11.814884521484375,0.5047624707221985,-1.5904624462127686,-1.5255625247955322
1717012792789769000,11.82476904296875,0.5772249698638916,-1.5670875310897827,-1.939574956893921
1717012792799653400,11.8346533203125,0.525112509727478,-1.362762451171875,-2.3408000469207764
1717012792809538000,11.8445380859375,0.3419624865055084,-1.0892750024795532,-2.6802875995635986
1717012792819422700,11.854422607421874,0.03657500073313713,-0.8210124969482422,-2.987874984741211
1717012792829307400,11.864307373046875,-0.34869998693466187,-0.6528499722480774,-3.2921624183654785
1717012792839191800,11.87419189453125,-0.682824969291687,-0.6986374855041504,-3.59232497215271
1717012792849076500,11.884076416015626,-0.8893499970436096,-0.9743250012397766,-3.8785998821258545
1717012792858961200,11.893961181640625,-1.0148874521255493,-1.3903999328613281,-4.0701375007629395
1717012792868845800,11.903845703125,-1.1797499656677246,-1.8214625120162964,-4.044562339782715
1717012792878730200,11.913730224609376,-1.4405875205993652,-2.178962469100952,-3.7285873889923096
1717012792888615000,11.923614990234375,-1.7448749542236328,-2.284287452697754,-3.088937520980835
1717012792898499300,11.933499267578124,-2.0556249618530273,-2.1183249950408936,-2.2631125450134277
1717012792908384000,11.943384033203126,-2.300374984741211,-1.8214625120162964,-1.4830750226974487
1717012792918268700,11.9532685546875,-2.400475025177002,-1.5170375108718872,-0.8860499858856201
1717012792928153000,11.963153076171874,-2.386587381362915,-1.1732875108718872,-0.4008125066757202
1717012792938037800,11.973037841796875,-2.3036749362945557,-0.8764249682426453,0.021724998950958252
1717012792947922400,11.98292236328125,-2.2174625396728516,-0.7284749746322632,0.41552498936653137
1717012792957806800,11.992806884765624,-2.2046749591827393,-0.6263124942779541,0.8369625210762024
1717012792967691500,12.00269140625,-2.240837574005127,-0.4805625081062317,1.2487750053405762
1717012792977576200,12.012576171875,-2.2631125450134277,-0.2974124848842621,1.6064125299453735
1717012792987460900,12.0224609375,-2.2525250911712646,-0.08566249907016754,1.8947499990463257
1717012792997345500,12.032345458984375,-2.2004125118255615,0.1568875014781952,2.097012519836426
1717012793007230000,12.04222998046875,-2.108837604522705,0.40700000524520874,2.2193875312805176
1717012793017114600,12.052114501953126,-2.004612445831299,0.5933125019073486,2.2863500118255615
1717012793026999000,12.0619990234375,-1.9406750202178955,0.7114250063896179,2.3406624794006348
1717012793036883700,12.0718837890625,-1.966249942779541,0.813587486743927,2.382187604904175
1717012793046768400,12.081768310546876,-1.898187518119812,0.8349000215530396,2.430037498474121
1717012793056652800,12.09165283203125,-1.7353874444961548,0.8944374918937683,2.4949374198913574
1717012793066537500,12.101537353515624,-1.620437502861023,0.9667624831199646,2.518312454223633
1717012793076422100,12.111422119140625,-1.511812448501587,1.0210750102996826,2.540724992752075
1717012793086306600,12.121306640625,-1.3714250326156616,1.0487124919891357,2.606724977493286
1717012793096191200,12.131191162109374,-1.1873124837875366,1.1360249519348145,2.6758875846862793
1717012793106075600,12.14107568359375,-0.9733625054359436,1.312712550163269,2.6822125911712646
1717012793115960300,12.150960205078125,-0.7488250136375427,1.4766124486923218,2.6673624515533447
1717012793125845000,12.160844970703126,-0.5743374824523926,1.622362494468689,2.6684625148773193
1717012793135729400,12.1707294921875,-0.4923875033855438,1.741575002670288,2.6747875213623047
1717012793145614000,12.180614013671875,-0.467912495136261,1.7510625123977661,2.6716248989105225
1717012793155498800,12.190498779296876,-0.43697500228881836,1.6724125146865845,2.6503124237060547
1717012793165383200,12.200383056640625,-0.39022499322891235,1.557462453842163,2.599299907684326
1717012793175267800,12.210267822265624,-0.34017500281333923,1.4488375186920166,2.503462553024292
1717012793185152500,12.220152587890626,-0.28476250171661377,1.4041500091552734,2.3597750663757324
1717012793195037200,12.230037109375,-0.22948749363422394,1.445675015449524,2.1639750003814697
1717012793204921600,12.239921630859374,-0.12622499465942383,1.5776749849319458,1.8904874324798584
1717012793214806300,12.24980615234375,0.035475000739097595,1.7714124917984009,1.5680500268936157
1717012793224690700,12.259690673828125,0.2110625058412552,1.9778000116348267,1.239150047302246
1717012793234575400,12.269575439453124,0.38142499327659607,2.1235499382019043,0.9422875046730042
1717012793244459800,12.279459716796875,0.5229125022888184,2.2290124893188477,0.7028999924659729
1717012793254344400,12.289344482421875,0.6282374858856201,2.250187397003174,0.5112249851226807
1717012793264229000,12.29922900390625,0.6984999775886536,2.1428000926971436,0.35694998502731323
1717012793274113800,12.30911376953125,0.7634000182151794,1.9234875440597534,0.24626250565052032
1717012793283998200,12.318998291015625,0.8347625136375427,1.6596249341964722,0.15908749401569366
1717012793293882600,12.328882568359376,0.9241374731063843,1.4436124563217163,0.0845625028014183
1717012793303767300,12.338767333984375,1.019837498664856,1.252074956893921,0.004674999974668026
1717012793313652000,12.34865185546875,1.0965625047683716,1.1147124767303467,-0.06338749825954437
1717012793323536400,12.358536376953126,1.1625624895095825,1.0423874855041504,-0.11123749613761902
1717012793333421000,12.368421142578125,1.2167375087738037,0.9880750179290771,-0.1592250019311905
1717012793343305700,12.3783056640625,1.2561999559402466,0.9294999837875366,-0.2134000062942505
1717012793353190100,12.388190185546875,1.297724962234497,0.8668000102043152,-0.2793999910354614
1717012793363074800,12.39807470703125,1.3264625072479248,0.7922750115394592,-0.41676250100135803
1717012793372959500,12.40795947265625,1.3316874504089355,0.7028999924659729,-0.6646749973297119
1717012793382844200,12.41784423828125,1.3274250030517578,0.6039000153541565,-0.9956374764442444
1717012793392728300,12.427728271484375,1.3327875137329102,0.5262125134468079,-1.3382874727249146
1717012793402613000,12.437613037109376,1.3518999814987183,0.49004998803138733,-1.6139750480651855
1717012793412497700,12.44749755859375,1.345574975013733,0.4815250039100647,-1.781037449836731
1717012793422382300,12.45738232421875,1.2721500396728516,0.4633750021457672,-1.8353500366210938
1717012793432266800,12.467266845703126,1.139050006866455,0.507099986076355,-1.7906625270843506
1717012793442151400,12.4771513671875,1.0507750511169434,0.6177874803543091,-1.7172374725341797
1717012793452036000,12.4870361328125,1.0496749877929688,0.7017999887466431,-1.6948249340057373
1717012793461920500,12.49692041015625,1.1050875186920166,0.7220125198364258,-1.7608250379562378
1717012793471805200,12.50680517578125,1.1635249853134155,0.6687999963760376,-1.8895249366760254
1717012793481689600,12.516689697265624,1.1996874809265137,0.5773624777793884,-2.018362522125244
1717012793491574300,12.52657421875,1.1996874809265137,0.4431625008583069,-2.106637477874756
1717012793501458700,12.536458740234375,1.1423499584197998,0.31872498989105225,-2.1470625400543213
1717012793511343400,12.54634326171875,1.0561374425888062,0.2899875044822693,-2.1663124561309814
1717012793521228000,12.55622802734375,0.9400874972343445,0.24310000240802765,-2.2428998947143555
1717012793531112400,12.566112548828125,0.8017625212669373,0.14093749225139618,-2.3504250049591064
1717012793540997000,12.5759970703125,0.7623000144958496,0.08139999955892563,-2.4099624156951904
1717012793550881800,12.5858818359375,0.843287467956543,-0.043175000697374344,-2.453550100326538
1717012793560766500,12.595766357421875,0.9506750106811523,-0.22398750483989716,-2.4759624004364014
1717012793570651000,12.60565087890625,0.9975624680519104,-0.4240500032901764,-2.4663374423980713
1717012793580535300,12.615535400390625,0.915612518787384,-0.6561499834060669,-2.495074987411499
1717012793590420000,12.625419921875,0.777287483215332,-0.822112500667572,-2.6452250480651855
1717012793600304600,12.6353046875,0.6888750195503235,-0.9552124738693237,-2.921875
1717012793610189000,12.64518896484375,0.5473874807357788,-1.1265374422073364,-3.216675043106079
1717012793620073700,12.65507373046875,0.2952125072479248,-1.2509750127792358,-3.3453750610351562
1717012793629958400,12.66495849609375,0.01209999993443489,-1.2978625297546387,-3.276212453842163
1717012793639843000,12.674843017578125,-0.2092749923467636,-1.2509750127792358,-3.199625015258789
